Timestamp,Orientation X,Orientation Y,Orientation Z,Angular Velocity X,Angular Velocity Y,Angular Velocity Z,Linear Acceleration X,Linear Acceleration Y,Linear Acceleration Z,Magnetic Field X,Magnetic Field Y,Magnetic Field Z,Raw IMU Data String
1710358267.7296948,85.851,-2.753,-0.285,0.1146,-0.1351,0.9184,-0.562,-1.459,-10.392,-0.108057,-0.00295,-0.058729,"$VNYMR,+085.851,-002.753,-000.285,+00.1146,-00.1351,+00.9184,-00.562,-01.459,-10.392,-00.108057,-00.002950,-00.058729*60"
1710358267.7550976,85.56,-2.655,-0.445,0.1136,-0.1361,0.9209,-0.529,-1.025,-9.765,-0.130192,0.095726,-0.278132,"$VNYMR,+085.560,-002.655,-000.445,+00.1136,-00.1361,+00.9209,-00.529,-01.025,-09.765,-00.130192,+00.095726,-00.278132*6C"
1710358267.7896821,85.069,-2.506,-0.715,0.1146,-0.1384,0.921,-0.12,0.31,-10.177,-0.230026,0.133612,-0.312863,"$VNYMR,+085.069,-002.506,-000.715,+00.1146,-00.1384,+00.9210,-00.120,+00.310,-10.177,-00.230026,+00.133612,-00.312863*63"
1710358267.8062127,84.679,-2.269,-1.017,0.1156,-0.1395,0.9198,-0.17,-0.007,-10.527,-0.23323,0.227569,-0.253426,"$VNYMR,+084.679,-002.269,-001.017,+00.1156,-00.1395,+00.9198,-00.170,-00.007,-10.527,-00.233230,+00.227569,-00.253426*6C"
1710358267.8326821,84.289,-1.894,-1.386,0.1144,-0.1439,0.9172,0.195,0.344,-9.683,-0.253967,0.259796,-0.246871,"$VNYMR,+084.289,-001.894,-001.386,+00.1144,-00.1439,+00.9172,+00.195,+00.344,-09.683,-00.253967,+00.259796,-00.246871*65"
1710358267.8599591,84.032,-1.597,-1.653,0.1123,-0.1428,0.9158,0.388,0.858,-9.49,-0.173827,0.187807,-0.101718,"$VNYMR,+084.032,-001.597,-001.653,+00.1123,-00.1428,+00.9158,+00.388,+00.858,-09.490,-00.173827,+00.187807,-00.101718*66"
1710358267.8843777,83.961,-1.331,-1.853,0.1082,-0.1416,0.9143,0.142,-0.077,-9.722,-0.098071,0.184633,-0.026859,"$VNYMR,+083.961,-001.331,-001.853,+00.1082,-00.1416,+00.9143,+00.142,-00.077,-09.722,-00.098071,+00.184633,-00.026859*61"
1710358267.909583,83.872,-1.125,-1.972,0.106,-0.1449,0.913,0.249,0.564,-9.397,-0.05954,0.119745,-0.036319,"$VNYMR,+083.872,-001.125,-001.972,+00.1060,-00.1449,+00.9130,+00.249,+00.564,-09.397,-00.059540,+00.119745,-00.036319*66"
1710358267.9353313,83.866,-1.042,-2.011,0.108,-0.1494,0.9208,0.064,0.149,-9.571,0.01553,0.029787,-0.015799,"$VNYMR,+083.866,-001.042,-002.011,+00.1080,-00.1494,+00.9208,+00.064,+00.149,-09.571,+00.015530,+00.029787,-00.015799*6A"
1710358267.960437,83.797,-1.031,-1.935,0.1051,-0.1404,0.9167,0.211,0.423,-9.554,0.027254,-0.002104,-0.05038,"$VNYMR,+083.797,-001.031,-001.935,+00.1051,-00.1404,+00.9167,+00.211,+00.423,-09.554,+00.027254,-00.002104,-00.050380*69"
1710358267.9865305,83.754,-1.072,-1.865,0.1072,-0.1383,0.9117,-0.008,-0.082,-10.154,0.057632,-0.03108,-0.054451,"$VNYMR,+083.754,-001.072,-001.865,+00.1072,-00.1383,+00.9117,-00.008,-00.082,-10.154,+00.057632,-00.031080,-00.054451*63"
1710358268.0124834,83.661,-1.006,-1.853,0.1092,-0.1461,0.9195,0.148,0.552,-10.347,-0.015563,0.092787,-0.058983,"$VNYMR,+083.661,-001.006,-001.853,+00.1092,-00.1461,+00.9195,+00.148,+00.552,-10.347,-00.015563,+00.092787,-00.058983*66"
1710358268.0379708,83.578,-0.813,-1.841,0.106,-0.1471,0.9181,0.613,1.171,-9.841,0.038085,0.133019,-0.054126,"$VNYMR,+083.578,-000.813,-001.841,+00.1060,-00.1471,+00.9181,+00.613,+01.171,-09.841,+00.038085,+00.133019,-00.054126*67"
1710358268.0638852,83.673,-0.701,-1.788,0.1051,-0.1415,0.9167,0.813,1.505,-9.676,0.003686,0.02514,0.150792,"$VNYMR,+083.673,-000.701,-001.788,+00.1051,-00.1415,+00.9167,+00.813,+01.505,-09.676,+00.003686,+00.025140,+00.150792*6E"
1710358268.089496,83.916,-0.595,-1.79,0.104,-0.1449,0.918,0.401,-0.391,-10.059,-0.023559,0.091206,0.110642,"$VNYMR,+083.916,-000.595,-001.790,+00.1040,-00.1449,+00.9180,+00.401,-00.391,-10.059,-00.023559,+00.091206,+00.110642*67"
1710358268.116125,83.933,-0.424,-1.861,0.103,-0.1437,0.9205,0.818,0.702,-9.055,-0.057268,0.102491,-0.004057,"$VNYMR,+083.933,-000.424,-001.861,+00.1030,-00.1437,+00.9205,+00.818,+00.702,-09.055,-00.057268,+00.102491,-00.004057*67"
1710358268.15266,83.914,-0.383,-1.927,0.1008,-0.1459,0.9191,1.082,0.774,-9.029,-0.043944,-0.040363,-0.021639,"$VNYMR,+083.914,-000.383,-001.927,+00.1008,-00.1459,+00.9191,+01.082,+00.774,-09.029,-00.043944,-00.040363,-00.021639*64"
1710358268.1671436,83.99,-0.537,-1.943,0.1042,-0.1338,0.909,1.318,1.683,-9.725,0.025874,-0.161377,0.106588,"$VNYMR,+083.990,-000.537,-001.943,+00.1042,-00.1338,+00.9090,+01.318,+01.683,-09.725,+00.025874,-00.161377,+00.106588*66"
1710358268.1933804,84.212,-0.764,-1.939,0.106,-0.1471,0.9207,1.089,0.602,-10.443,-0.005762,-0.169535,0.13939,"$VNYMR,+084.212,-000.764,-001.939,+00.1060,-00.1471,+00.9207,+01.089,+00.602,-10.443,-00.005762,-00.169535,+00.139390*60"
1710358268.219619,84.377,-0.891,-2.027,0.107,-0.1482,0.9169,1.288,0.669,-10.805,-0.11432,-0.032102,0.060189,"$VNYMR,+084.377,-000.891,-002.027,+00.1070,-00.1482,+00.9169,+01.288,+00.669,-10.805,-00.114320,-00.032102,+00.060189*6F"
1710358268.2457128,84.602,-0.897,-2.182,0.1049,-0.1471,0.9155,1.317,1.483,-9.764,-0.11233,-0.005,0.233344,"$VNYMR,+084.602,-000.897,-002.182,+00.1049,-00.1471,+00.9155,+01.317,+01.483,-09.764,-00.112330,-00.005000,+00.233344*6E"
1710358268.2716722,84.98,-0.875,-2.33,0.1039,-0.1493,0.9155,0.908,-0.511,-9.221,-0.125999,-0.005526,0.254292,"$VNYMR,+084.980,-000.875,-002.330,+00.1039,-00.1493,+00.9155,+00.908,-00.511,-09.221,-00.125999,-00.005526,+00.254292*6C"
1710358268.2971604,85.098,-0.866,-2.538,0.0998,-0.1437,0.914,1.04,-0.317,-8.965,-0.135049,-0.015478,0.001213,"$VNYMR,+085.098,-000.866,-002.538,+00.0998,-00.1437,+00.9140,+01.040,-00.317,-08.965,-00.135049,-00.015478,+00.001213*63"
1710358268.3251255,85.166,-0.99,-2.65,0.1037,-0.1537,0.9143,1.29,1.87,-8.945,-0.025028,-0.136381,0.140884,"$VNYMR,+085.166,-000.990,-002.650,+00.1037,-00.1537,+00.9143,+01.290,+01.870,-08.945,-00.025028,-00.136381,+00.140884*6F"
1710358268.3494763,85.415,-1.157,-2.608,0.1027,-0.1526,0.9142,0.97,-0.203,-9.888,0.04584,-0.086561,0.124856,"$VNYMR,+085.415,-001.157,-002.608,+00.1027,-00.1526,+00.9142,+00.970,-00.203,-09.888,+00.045840,-00.086561,+00.124856*64"
1710358268.3762147,85.484,-1.219,-2.629,0.1038,-0.1515,0.9143,1.311,1.286,-9.431,-0.038067,-0.032393,0.045293,"$VNYMR,+085.484,-001.219,-002.629,+00.1038,-00.1515,+00.9143,+01.311,+01.286,-09.431,-00.038067,-00.032393,+00.045293*61"
1710358268.4016857,85.605,-1.366,-2.576,0.1048,-0.1515,0.9156,1.309,1.395,-9.269,0.083232,-0.186791,0.106273,"$VNYMR,+085.605,-001.366,-002.576,+00.1048,-00.1515,+00.9156,+01.309,+01.395,-09.269,+00.083232,-00.186791,+00.106273*6C"
1710358268.4292486,85.767,-1.625,-2.388,0.1068,-0.1549,0.9132,0.977,0.415,-10.474,0.150593,-0.11559,0.033003,"$VNYMR,+085.767,-001.625,-002.388,+00.1068,-00.1549,+00.9132,+00.977,+00.415,-10.474,+00.150593,-00.115590,+00.033003*63"
1710358268.4518228,85.736,-1.803,-2.17,0.1072,-0.1416,0.9156,0.584,0.454,-10.358,0.134472,-0.098805,-0.068648,"$VNYMR,+085.736,-001.803,-002.170,+00.1072,-00.1416,+00.9156,+00.584,+00.454,-10.358,+00.134472,-00.098805,-00.068648*6E"
1710358268.4777484,85.684,-1.856,-1.952,0.1103,-0.1383,0.9055,0.694,0.583,-10.447,0.146671,-0.006602,-0.008621,"$VNYMR,+085.684,-001.856,-001.952,+00.1103,-00.1383,+00.9055,+00.694,+00.583,-10.447,+00.146671,-00.006602,-00.008621*60"
1710358268.50297,85.597,-1.779,-1.793,0.1101,-0.1483,0.9171,0.473,-0.406,-9.946,0.129412,0.087172,-0.076638,"$VNYMR,+085.597,-001.779,-001.793,+00.1101,-00.1483,+00.9171,+00.473,-00.406,-09.946,+00.129412,+00.087172,-00.076638*67"
1710358268.5295281,85.153,-1.74,-1.543,0.1113,-0.145,0.9209,1.226,0.779,-10.181,0.236062,-0.007981,-0.373192,"$VNYMR,+085.153,-001.740,-001.543,+00.1113,-00.1450,+00.9209,+01.226,+00.779,-10.181,+00.236062,-00.007981,-00.373192*6B"
1710358268.5547934,84.675,-1.752,-1.116,0.1134,-0.1428,0.9222,1.039,1.185,-11.27,0.280617,0.036491,-0.288526,"$VNYMR,+084.675,-001.752,-001.116,+00.1134,-00.1428,+00.9222,+01.039,+01.185,-11.270,+00.280617,+00.036491,-00.288526*66"
1710358268.5804684,84.349,-1.613,-0.741,0.1125,-0.1395,0.9209,0.455,0.036,-11.612,0.227464,0.110419,-0.204943,"$VNYMR,+084.349,-001.613,-000.741,+00.1125,-00.1395,+00.9209,+00.455,+00.036,-11.612,+00.227464,+00.110419,-00.204943*67"
1710358268.6065545,83.978,-1.405,-0.447,0.1127,-0.1306,0.9233,-0.425,-1.261,-11.921,0.16449,0.180285,-0.29964,"$VNYMR,+083.978,-001.405,-000.447,+00.1127,-00.1306,+00.9233,-00.425,-01.261,-11.921,+00.164490,+00.180285,-00.299640*6D"
1710358268.6319177,83.451,-1.173,-0.3,0.1138,-0.1284,0.9246,-0.693,-1.274,-10.079,0.059962,0.102563,-0.416025,"$VNYMR,+083.451,-001.173,-000.300,+00.1138,-00.1284,+00.9246,-00.693,-01.274,-10.079,+00.059962,+00.102563,-00.416025*6C"
1710358268.6577687,82.782,-1.224,-0.178,0.1118,-0.1272,0.9282,-0.671,-0.87,-10.261,0.120163,-0.110926,-0.479886,"$VNYMR,+082.782,-001.224,-000.178,+00.1118,-00.1272,+00.9282,-00.671,-00.870,-10.261,+00.120163,-00.110926,-00.479886*61"
1710358268.6832693,82.091,-1.467,0.048,0.1203,-0.1207,0.9298,-1.307,-1.877,-11.359,0.208594,-0.187123,-0.42846,"$VNYMR,+082.091,-001.467,+000.048,+00.1203,-00.1207,+00.9298,-01.307,-01.877,-11.359,+00.208594,-00.187123,-00.428460*6F"
1710358268.7088249,81.312,-1.502,0.218,0.1244,-0.1208,0.9326,-0.93,-0.629,-11.134,0.056731,0.086439,-0.560303,"$VNYMR,+081.312,-001.502,+000.218,+00.1244,-00.1208,+00.9326,-00.930,-00.629,-11.134,+00.056731,+00.086439,-00.560303*68"
1710358268.7344298,80.538,-1.332,0.268,0.1212,-0.1229,0.9286,0.154,-0.085,-8.34,0.010821,0.11245,-0.517407,"$VNYMR,+080.538,-001.332,+000.268,+00.1212,-00.1229,+00.9286,+00.154,-00.085,-08.340,+00.010821,+00.112450,-00.517407*67"
1710358268.760219,79.982,-1.286,0.241,0.1265,-0.1197,0.9327,1.096,0.882,-7.281,-0.030604,-0.0461,-0.261881,"$VNYMR,+079.982,-001.286,+000.241,+00.1265,-00.1197,+00.9327,+01.096,+00.882,-07.281,-00.030604,-00.046100,-00.261881*6E"
1710358268.7856486,79.734,-1.548,0.268,0.1286,-0.1197,0.9328,0.951,-0.827,-8.047,0.062022,-0.27717,-0.165395,"$VNYMR,+079.734,-001.548,+000.268,+00.1286,-00.1197,+00.9328,+00.951,-00.827,-08.047,+00.062022,-00.277170,-00.165395*61"
1710358268.8128676,79.423,-2.006,0.479,0.1349,-0.1198,0.9318,0.174,-0.98,-9.979,0.148838,-0.297136,-0.235979,"$VNYMR,+079.423,-002.006,+000.479,+00.1349,-00.1198,+00.9318,+00.174,-00.980,-09.979,+00.148838,-00.297136,-00.235979*6E"
1710358268.838024,79.155,-2.25,0.665,0.1371,-0.1132,0.9318,-0.334,-0.625,-9.906,0.100027,-0.099063,-0.159255,"$VNYMR,+079.155,-002.250,+000.665,+00.1371,-00.1132,+00.9318,-00.334,-00.625,-09.906,+00.100027,-00.099063,-00.159255*6C"
1710358268.8637943,79.002,-2.332,0.786,0.1382,-0.1121,0.9319,-0.108,-0.361,-8.707,0.058564,-0.060272,-0.073181,"$VNYMR,+079.002,-002.332,+000.786,+00.1382,-00.1121,+00.9319,-00.108,-00.361,-08.707,+00.058564,-00.060272,-00.073181*66"
1710358268.889784,78.826,-2.505,0.842,0.1392,-0.1133,0.9294,-0.428,-1.681,-8.277,-0.002664,-0.163199,-0.194796,"$VNYMR,+078.826,-002.505,+000.842,+00.1392,-00.1133,+00.9294,-00.428,-01.681,-08.277,-00.002664,-00.163199,-00.194796*63"
1710358268.9437466,78.401,-2.774,0.866,0.1434,-0.1111,0.9321,-0.329,-1.024,-8.81,0.023218,-0.217761,-0.336342,"$VNYMR,+078.401,-002.774,+000.866,+00.1434,-00.1111,+00.9321,-00.329,-01.024,-08.810,+00.023218,-00.217761,-00.336342*64"
1710358268.9871843,77.883,-3.093,0.954,0.1508,-0.1068,0.9311,0.299,0.491,-9.408,0.054314,-0.213626,-0.326869,"$VNYMR,+077.883,-003.093,+000.954,+00.1508,-00.1068,+00.9311,+00.299,+00.491,-09.408,+00.054314,-00.213626,-00.326869*6D"
1710358269.030224,77.595,-3.326,1.02,0.1518,-0.1079,0.9337,0.598,-0.054,-10.308,0.03051,-0.142108,-0.146629,"$VNYMR,+077.595,-003.326,+001.020,+00.1518,-00.1079,+00.9337,+00.598,-00.054,-10.308,+00.030510,-00.142108,-00.146629*64"
1710358269.0752058,77.396,-3.41,0.987,0.1539,-0.1091,0.9301,0.972,-0.064,-10.283,-0.074353,-0.026687,-0.12344,"$VNYMR,+077.396,-003.410,+000.987,+00.1539,-00.1091,+00.9301,+00.972,-00.064,-10.283,-00.074353,-00.026687,-00.123440*65"
1710358269.119074,77.282,-3.456,0.957,0.1549,-0.1113,0.9365,0.844,-1.159,-9.809,-0.037838,-0.038892,-0.081155,"$VNYMR,+077.282,-003.456,+000.957,+00.1549,-00.1113,+00.9365,+00.844,-01.159,-09.809,-00.037838,-00.038892,-00.081155*66"
1710358269.1620243,77.15,-3.487,0.89,0.157,-0.1091,0.9353,0.748,-0.623,-9.569,-0.060413,-0.029657,-0.085606,"$VNYMR,+077.150,-003.487,+000.890,+00.1570,-00.1091,+00.9353,+00.748,-00.623,-09.569,-00.060413,-00.029657,-00.085606*6E"
1710358269.2046525,77.081,-3.607,0.843,0.156,-0.1102,0.9352,0.652,-1.028,-9.669,-0.008537,-0.117293,-0.042213,"$VNYMR,+077.081,-003.607,+000.843,+00.1560,-00.1102,+00.9352,+00.652,-01.028,-09.669,-00.008537,-00.117293,-00.042213*6B"
1710358269.246901,76.888,-3.787,0.837,0.1573,-0.0969,0.9288,0.412,-1.25,-10.307,-0.027857,-0.116896,-0.187225,"$VNYMR,+076.888,-003.787,+000.837,+00.1573,-00.0969,+00.9288,+00.412,-01.250,-10.307,-00.027857,-00.116896,-00.187225*6A"
1710358269.289755,76.638,-3.901,0.718,0.1612,-0.107,0.9317,0.1,-0.085,-11.515,-0.152148,-0.02804,-0.131424,"$VNYMR,+076.638,-003.901,+000.718,+00.1612,-00.1070,+00.9317,+00.100,-00.085,-11.515,-00.152148,-00.028040,-00.131424*66"
1710358269.333597,76.521,-3.778,0.484,0.159,-0.1103,0.9291,-0.243,-0.939,-11.691,-0.199095,0.138097,-0.089517,"$VNYMR,+076.521,-003.778,+000.484,+00.1590,-00.1103,+00.9291,-00.243,-00.939,-11.691,-00.199095,+00.138097,-00.089517*62"
1710358269.3771644,76.382,-3.561,0.232,0.1548,-0.1135,0.9314,-0.183,-1.434,-10.705,-0.149571,0.106369,-0.097576,"$VNYMR,+076.382,-003.561,+000.232,+00.1548,-00.1135,+00.9314,-00.183,-01.434,-10.705,-00.149571,+00.106369,-00.097576*66"
1710358269.4224477,76.16,-3.609,0.149,0.159,-0.1114,0.9329,-0.385,-1.568,-10.742,-0.025176,-0.13614,-0.194904,"$VNYMR,+076.160,-003.609,+000.149,+00.1590,-00.1114,+00.9329,-00.385,-01.568,-10.742,-00.025176,-00.136140,-00.194904*62"
1710358269.4659991,75.963,-4.048,0.257,0.1622,-0.1114,0.933,-0.736,1.069,-12.267,0.129825,-0.388543,-0.010338,"$VNYMR,+075.963,-004.048,+000.257,+00.1622,-00.1114,+00.9330,-00.736,+01.069,-12.267,+00.129825,-00.388543,-00.010338*62"
1710358269.5094624,76.115,-4.503,0.46,0.1673,-0.1149,0.9321,-1.799,-1.001,-12.98,0.131631,-0.24518,0.11182,"$VNYMR,+076.115,-004.503,+000.460,+00.1673,-00.1149,+00.9321,-01.799,-01.001,-12.980,+00.131631,-00.245180,+00.111820*6F"
1710358269.552571,76.114,-4.666,0.546,0.1684,-0.1105,0.9321,-2.432,-1.396,-12.441,0.003675,-0.007969,-0.083726,"$VNYMR,+076.114,-004.666,+000.546,+00.1684,-00.1105,+00.9321,-02.432,-01.396,-12.441,+00.003675,-00.007969,-00.083726*69"
1710358269.5965214,75.886,-4.38,0.44,0.1674,-0.1104,0.9282,-2.324,-0.935,-10.398,-0.135875,0.319935,-0.207776,"$VNYMR,+075.886,-004.380,+000.440,+00.1674,-00.1104,+00.9282,-02.324,-00.935,-10.398,-00.135875,+00.319935,-00.207776*63"
1710358269.6404276,75.499,-3.881,0.28,0.1631,-0.1137,0.9293,-1.247,0.472,-7.68,-0.107738,0.325437,-0.292627,"$VNYMR,+075.499,-003.881,+000.280,+00.1631,-00.1137,+00.9293,-01.247,+00.472,-07.680,-00.107738,+00.325437,-00.292627*6C"
1710358269.683203,75.149,-3.53,0.199,0.1632,-0.1092,0.9293,-0.133,1.376,-7.205,-0.090278,0.209132,-0.21449,"$VNYMR,+075.149,-003.530,+000.199,+00.1632,-00.1092,+00.9293,-00.133,+01.376,-07.205,-00.090278,+00.209132,-00.214490*6E"
1710358269.7285116,74.953,-3.296,0.016,0.1622,-0.1092,0.9343,0.337,1.712,-7.354,-0.124287,0.095013,-0.081676,"$VNYMR,+074.953,-003.296,+000.016,+00.1622,-00.1092,+00.9343,+00.337,+01.712,-07.354,-00.124287,+00.095013,-00.081676*60"
1710358269.7735605,74.965,-3.402,-0.087,0.1613,-0.1048,0.9266,-0.311,1.529,-8.752,0.004648,-0.179729,0.083454,"$VNYMR,+074.965,-003.402,-000.087,+00.1613,-00.1048,+00.9266,-00.311,+01.529,-08.752,+00.004648,-00.179729,+00.083454*69"
1710358269.8197165,75.143,-3.789,-0.045,0.1633,-0.1048,0.9254,-1.414,0.597,-11.167,0.04949,-0.277745,0.136257,"$VNYMR,+075.143,-003.789,-000.045,+00.1633,-00.1048,+00.9254,-01.414,+00.597,-11.167,+00.049490,-00.277745,+00.136257*65"
1710358269.8628879,75.276,-3.885,-0.099,0.1663,-0.1126,0.9307,-1.95,-1.175,-12.407,-0.106705,0.110956,0.00298,"$VNYMR,+075.276,-003.885,-000.099,+00.1663,-00.1126,+00.9307,-01.950,-01.175,-12.407,-00.106705,+00.110956,+00.002980*67"
1710358269.9067683,75.1,-3.469,-0.303,0.161,-0.1148,0.9318,-0.825,0.142,-9.989,-0.18359,0.365064,-0.178488,"$VNYMR,+075.100,-003.469,-000.303,+00.1610,-00.1148,+00.9318,-00.825,+00.142,-09.989,-00.183590,+00.365064,-00.178488*6D"
1710358269.9496245,74.912,-2.954,-0.56,0.1599,-0.1159,0.9279,0.299,0.31,-7.856,-0.167811,0.32437,-0.111656,"$VNYMR,+074.912,-002.954,-000.560,+00.1599,-00.1159,+00.9279,+00.299,+00.310,-07.856,-00.167811,+00.324370,-00.111656*62"
1710358269.9932294,74.73,-2.672,-0.758,0.1579,-0.1169,0.9316,0.586,0.171,-7.04,-0.13955,0.115758,-0.137065,"$VNYMR,+074.730,-002.672,-000.758,+00.1579,-00.1169,+00.9316,+00.586,+00.171,-07.040,-00.139550,+00.115758,-00.137065*67"
1710358270.0372338,74.514,-2.643,-0.901,0.1568,-0.118,0.9253,0.44,0.212,-8.455,-0.085601,-0.008131,-0.165209,"$VNYMR,+074.514,-002.643,-000.901,+00.1568,-00.1180,+00.9253,+00.440,+00.212,-08.455,-00.085601,-00.008131,-00.165209*6A"
1710358270.0803993,74.276,-2.644,-0.964,0.1589,-0.1169,0.9304,0.443,0.866,-9.028,-0.023955,-0.015317,-0.155461,"$VNYMR,+074.276,-002.644,-000.964,+00.1589,-00.1169,+00.9304,+00.443,+00.866,-09.028,-00.023955,-00.015317,-00.155461*60"
1710358270.125367,74.135,-2.649,-1.007,0.1578,-0.1169,0.9266,0.302,0.652,-9.543,-0.056096,0.023735,-0.081762,"$VNYMR,+074.135,-002.649,-001.007,+00.1578,-00.1169,+00.9266,+00.302,+00.652,-09.543,-00.056096,+00.023735,-00.081762*67"
1710358270.1690533,74.068,-2.506,-1.101,0.1578,-0.118,0.9266,0.152,0.177,-9.363,-0.09585,0.154338,-0.037232,"$VNYMR,+074.068,-002.506,-001.101,+00.1578,-00.1180,+00.9266,+00.152,+00.177,-09.363,-00.095850,+00.154338,-00.037232*6D"
1710358270.2142675,73.945,-2.267,-1.187,0.1567,-0.1202,0.9228,-0.197,-0.397,-8.61,-0.037676,0.134027,-0.121615,"$VNYMR,+073.945,-002.267,-001.187,+00.1567,-00.1202,+00.9228,-00.197,-00.397,-08.610,-00.037676,+00.134027,-00.121615*64"
1710358270.2587905,73.652,-2.2,-1.164,0.156,-0.108,0.9251,0.042,-0.064,-8.495,0.028893,-0.010994,-0.23424,"$VNYMR,+073.652,-002.200,-001.164,+00.1560,-00.1080,+00.9251,+00.042,-00.064,-08.495,+00.028893,-00.010994,-00.234240*61"
1710358270.3013005,73.21,-2.301,-1.058,0.1581,-0.1036,0.9238,0.159,0.354,-9.608,0.076156,-0.078089,-0.342585,"$VNYMR,+073.210,-002.301,-001.058,+00.1581,-00.1036,+00.9238,+00.159,+00.354,-09.608,+00.076156,-00.078089,-00.342585*64"
1710358270.341621,72.704,-2.405,-0.924,0.159,-0.1103,0.9291,0.103,0.496,-10.847,0.108071,-0.045758,-0.348225,"$VNYMR,+072.704,-002.405,-000.924,+00.1590,-00.1103,+00.9291,+00.103,+00.496,-10.847,+00.108071,-00.045758,-00.348225*64"
1710358270.3767648,72.137,-2.403,-0.755,0.1632,-0.1104,0.9293,-0.098,0.082,-11.591,0.075242,0.046328,-0.42344,"$VNYMR,+072.137,-002.403,-000.755,+00.1632,-00.1104,+00.9293,-00.098,+00.082,-11.591,+00.075242,+00.046328,-00.423440*61"
1710358270.3948007,71.496,-2.197,-0.632,0.1622,-0.1081,0.9292,0.463,0.909,-11.508,0.062053,0.192085,-0.454193,"$VNYMR,+071.496,-002.197,-000.632,+00.1622,-00.1081,+00.9292,+00.463,+00.909,-11.508,+00.062053,+00.192085,-00.454193*67"
1710358270.4168596,70.85,-1.831,-0.481,0.1622,-0.107,0.9279,1.201,1.062,-11.315,0.127211,0.285841,-0.458577,"$VNYMR,+070.850,-001.831,-000.481,+00.1622,-00.1070,+00.9279,+01.201,+01.062,-11.315,+00.127211,+00.285841,-00.458577*68"
1710358270.4423416,70.25,-1.495,-0.219,0.1624,-0.1026,0.9316,1.58,1.897,-10.822,0.192273,0.177208,-0.350969,"$VNYMR,+070.250,-001.495,-000.219,+00.1624,-00.1026,+00.9316,+01.580,+01.897,-10.822,+00.192273,+00.177208,-00.350969*67"
1710358270.4693532,69.921,-1.368,0.084,0.1594,-0.0947,0.9314,0.733,0.575,-11.44,0.221033,0.02687,-0.175934,"$VNYMR,+069.921,-001.368,+000.084,+00.1594,-00.0947,+00.9314,+00.733,+00.575,-11.440,+00.221033,+00.026870,-00.175934*60"
1710358270.5217235,69.754,-1.397,0.357,0.1626,-0.0926,0.9328,-0.786,-0.526,-11.898,0.140685,-0.032739,-0.07936,"$VNYMR,+069.754,-001.397,+000.357,+00.1626,-00.0926,+00.9328,-00.786,-00.526,-11.898,+00.140685,-00.032739,-00.079360*6A"
1710358270.560601,69.558,-1.443,0.499,0.1616,-0.0937,0.934,-2.364,-2.273,-11.496,0.065187,-0.031061,-0.212657,"$VNYMR,+069.558,-001.443,+000.499,+00.1616,-00.0937,+00.9340,-02.364,-02.273,-11.496,+00.065187,-00.031061,-00.212657*6B"
1710358270.5813398,69.068,-1.438,0.533,0.164,-0.0804,0.9301,-2.839,-1.608,-11.223,-0.030321,0.061415,-0.408497,"$VNYMR,+069.068,-001.438,+000.533,+00.1640,-00.0804,+00.9301,-02.839,-01.608,-11.223,-00.030321,+00.061415,-00.408497*68"
1710358270.6014798,68.443,-1.196,0.398,0.1648,-0.0904,0.9341,-1.889,-0.611,-9.166,-0.157913,0.20647,-0.466561,"$VNYMR,+068.443,-001.196,+000.398,+00.1648,-00.0904,+00.9341,-01.889,-00.611,-09.166,-00.157913,+00.206470,-00.466561*6E"
1710358270.653973,67.809,-0.837,0.13,0.1617,-0.0903,0.934,-0.531,0.217,-7.721,-0.227396,0.265501,-0.431693,"$VNYMR,+067.809,-000.837,+000.130,+00.1617,-00.0903,+00.9340,-00.531,+00.217,-07.721,-00.227396,+00.265501,-00.431693*61"
1710358270.6942296,67.309,-0.553,-0.123,0.1596,-0.0914,0.9351,0.077,0.392,-7.082,-0.093358,0.112433,-0.300643,"$VNYMR,+067.309,-000.553,-000.123,+00.1596,-00.0914,+00.9351,+00.077,+00.392,-07.082,-00.093358,+00.112433,-00.300643*6A"
1710358270.7331724,67.025,-0.685,-0.084,0.1628,-0.087,0.9314,-0.119,-0.509,-8.151,0.104008,-0.233374,-0.130551,"$VNYMR,+067.025,-000.685,-000.084,+00.1628,-00.0870,+00.9314,-00.119,-00.509,-08.151,+00.104008,-00.233374,-00.130551*66"
1710358270.7717464,66.819,-1.173,0.174,0.17,-0.0894,0.9344,-0.824,-1.169,-10.006,0.20496,-0.389899,-0.156827,"$VNYMR,+066.819,-001.173,+000.174,+00.1700,-00.0894,+00.9344,-00.824,-01.169,-10.006,+00.204960,-00.389899,-00.156827*6D"
1710358270.8109372,66.491,-1.686,0.437,0.1691,-0.086,0.9355,-1.426,-1.519,-12.24,0.168603,-0.260773,-0.270042,"$VNYMR,+066.491,-001.686,+000.437,+00.1691,-00.0860,+00.9355,-01.426,-01.519,-12.240,+00.168603,-00.260773,-00.270042*60"
1710358270.8482141,66.018,-1.857,0.663,0.1756,-0.0717,0.9255,-0.699,0.703,-11.761,0.115325,-0.028081,-0.291569,"$VNYMR,+066.018,-001.857,+000.663,+00.1756,-00.0717,+00.9255,-00.699,+00.703,-11.761,+00.115325,-00.028081,-00.291569*60"
1710358270.8808186,65.716,-1.732,0.736,0.1765,-0.0795,0.9358,0.046,-0.193,-9.241,-0.018217,0.138438,-0.210562,"$VNYMR,+065.716,-001.732,+000.736,+00.1765,-00.0795,+00.9358,+00.046,-00.193,-09.241,-00.018217,+00.138438,-00.210562*6C"
1710358270.897766,65.32,-1.546,0.602,0.1755,-0.0761,0.9268,0.629,-0.106,-7.185,-0.140772,0.078569,-0.309949,"$VNYMR,+065.320,-001.546,+000.602,+00.1755,-00.0761,+00.9268,+00.629,-00.106,-07.185,-00.140772,+00.078569,-00.309949*60"
1710358270.9208658,64.887,-1.574,0.427,0.1796,-0.0795,0.9321,0.717,-0.437,-7.812,-0.115,-0.025201,-0.295657,"$VNYMR,+064.887,-001.574,+000.427,+00.1796,-00.0795,+00.9321,+00.717,-00.437,-07.812,-00.115000,-00.025201,-00.295657*66"
1710358270.9474604,64.523,-1.683,0.354,0.1807,-0.0785,0.9322,0.42,-0.516,-8.663,-0.021698,-0.086266,-0.236646,"$VNYMR,+064.523,-001.683,+000.354,+00.1807,-00.0785,+00.9322,+00.420,-00.516,-08.663,-00.021698,-00.086266,-00.236646*6A"
1710358270.9732985,64.274,-1.816,0.392,0.1838,-0.0796,0.9286,0.371,-0.834,-9.461,0.055015,-0.109278,-0.150509,"$VNYMR,+064.274,-001.816,+000.392,+00.1838,-00.0796,+00.9286,+00.371,-00.834,-09.461,+00.055015,-00.109278,-00.150509*6D"
1710358271.0282109,64.056,-1.857,0.442,0.1838,-0.0785,0.9298,0.449,-0.61,-10.059,-0.001384,0.019634,-0.181223,"$VNYMR,+064.056,-001.857,+000.442,+00.1838,-00.0785,+00.9298,+00.449,-00.610,-10.059,-00.001384,+00.019634,-00.181223*6B"
1710358271.0704544,63.818,-1.752,0.41,0.1818,-0.0763,0.9297,0.784,-0.469,-9.263,-0.063301,0.068462,-0.178408,"$VNYMR,+063.818,-001.752,+000.410,+00.1818,-00.0763,+00.9297,+00.784,-00.469,-09.263,-00.063301,+00.068462,-00.178408*6C"
1710358271.1129758,63.579,-1.691,0.281,0.1817,-0.0796,0.9335,1.255,0.181,-9.324,-0.127842,0.026337,-0.139727,"$VNYMR,+063.579,-001.691,+000.281,+00.1817,-00.0796,+00.9335,+01.255,+00.181,-09.324,-00.127842,+00.026337,-00.139727*6E"
1710358271.1566384,63.442,-1.658,0.086,0.1841,-0.0663,0.9233,1.135,-0.272,-9.799,-0.14381,0.012157,-0.09274,"$VNYMR,+063.442,-001.658,+000.086,+00.1841,-00.0663,+00.9233,+01.135,-00.272,-09.799,-00.143810,+00.012157,-00.092740*61"
1710358271.1847558,63.244,-1.613,-0.106,0.1828,-0.0774,0.9297,0.84,-0.118,-10.318,-0.145797,0.02436,-0.161502,"$VNYMR,+063.244,-001.613,-000.106,+00.1828,-00.0774,+00.9297,+00.840,-00.118,-10.318,-00.145797,+00.024360,-00.161502*6B"
1710358271.1991382,63.088,-1.56,-0.326,0.1837,-0.0818,0.9337,0.043,-0.833,-11.038,-0.186525,0.057135,-0.115131,"$VNYMR,+063.088,-001.560,-000.326,+00.1837,-00.0818,+00.9337,+00.043,-00.833,-11.038,-00.186525,+00.057135,-00.115131*60"
1710358271.2256117,62.983,-1.395,-0.541,0.1806,-0.0818,0.9272,-0.488,-1.192,-11.23,-0.151902,0.180296,-0.075711,"$VNYMR,+062.983,-001.395,-000.541,+00.1806,-00.0818,+00.9272,-00.488,-01.192,-11.230,-00.151902,+00.180296,-00.075711*67"
1710358271.2541544,62.814,-1.108,-0.773,0.1775,-0.0784,0.9244,-0.556,-2.292,-10.703,-0.167829,0.222198,-0.188022,"$VNYMR,+062.814,-001.108,-000.773,+00.1775,-00.0784,+00.9244,-00.556,-02.292,-10.703,-00.167829,+00.222198,-00.188022*60"
1710358271.2826557,62.312,-0.779,-1.044,0.1784,-0.0851,0.9296,0.363,-1.524,-9.827,-0.198322,0.218197,-0.427365,"$VNYMR,+062.312,-000.779,-001.044,+00.1784,-00.0851,+00.9296,+00.363,-01.524,-09.827,-00.198322,+00.218197,-00.427365*60"
1710358271.3261735,61.668,-0.709,-1.239,0.1784,-0.0873,0.9322,1.196,0.868,-10.661,-0.074856,-0.071181,-0.429262,"$VNYMR,+061.668,-000.709,-001.239,+00.1784,-00.0873,+00.9322,+01.196,+00.868,-10.661,-00.074856,-00.071181,-00.429262*6A"
1710358271.3661823,61.28,-1.002,-1.162,0.1826,-0.0863,0.9337,1.249,2.243,-13.147,0.106309,-0.263409,-0.164035,"$VNYMR,+061.280,-001.002,-001.162,+00.1826,-00.0863,+00.9337,+01.249,+02.243,-13.147,+00.106309,-00.263409,-00.164035*61"
1710358271.4188101,43.376,0.74,-0.805,0.2063,-0.0134,0.9286,1.517,-0.14,-9.593,-0.151932,0.040925,-0.14708,"$VNYMR,+043.376,+000.740,-000.805,+00.2063,-00.0134,+00.9286,+01.517,-00.140,-09.593,-00.151932,+00.040925,-00.147080*6D"
1710358271.4605682,43.141,0.839,-1.134,0.2052,-0.0145,0.9248,1.26,-0.248,-9.886,-0.256576,0.068096,-0.166649,"$VNYMR,+043.141,+000.839,-001.134,+00.2052,-00.0145,+00.9248,+01.260,-00.248,-09.886,-00.256576,+00.068096,-00.166649*60"
1710358271.5030751,42.963,0.925,-1.479,0.203,-0.02,0.9349,0.796,-0.877,-10.439,-0.221148,0.044788,-0.126416,"$VNYMR,+042.963,+000.925,-001.479,+00.2030,-00.0200,+00.9349,+00.796,-00.877,-10.439,-00.221148,+00.044788,-00.126416*67"
1710358271.5454764,42.674,0.877,-1.757,0.204,-0.0189,0.9312,0.38,-0.586,-11.318,-0.171401,-0.084471,-0.232088,"$VNYMR,+042.674,+000.877,-001.757,+00.2040,-00.0189,+00.9312,+00.380,-00.586,-11.318,-00.171401,-00.084471,-00.232088*6D"
1710358271.5879323,42.351,0.926,-2.011,0.2009,-0.0211,0.9285,0.266,-1.086,-12.589,-0.21779,0.177553,-0.259862,"$VNYMR,+042.351,+000.926,-002.011,+00.2009,-00.0211,+00.9285,+00.266,-01.086,-12.589,-00.217790,+00.177553,-00.259862*6F"
1710358271.6321414,41.825,1.408,-2.399,0.2018,-0.0255,0.9337,1.093,0.549,-10.605,-0.28272,0.376643,-0.380395,"$VNYMR,+041.825,+001.408,-002.399,+00.2018,-00.0255,+00.9337,+01.093,+00.549,-10.605,-00.282720,+00.376643,-00.380395*62"
1710358271.6751769,41.481,1.812,-2.821,0.1978,-0.021,0.9334,1.956,1.799,-9.55,-0.263188,0.184852,-0.100525,"$VNYMR,+041.481,+001.812,-002.821,+00.1978,-00.0210,+00.9334,+01.956,+01.799,-09.550,-00.263188,+00.184852,-00.100525*69"
1710358271.7224555,41.524,1.772,-3.067,0.1975,-0.0299,0.9323,1.63,1.179,-11.328,-0.104487,-0.152543,0.092799,"$VNYMR,+041.524,+001.772,-003.067,+00.1975,-00.0299,+00.9323,+01.630,+01.179,-11.328,-00.104487,-00.152543,+00.092799*69"
1710358271.7655666,41.744,1.381,-3.074,0.1988,-0.021,0.9246,0.003,1.994,-13.837,0.057278,-0.327912,0.207597,"$VNYMR,+041.744,+001.381,-003.074,+00.1988,-00.0210,+00.9246,+00.003,+01.994,-13.837,+00.057278,-00.327912,+00.207597*60"
1710358271.8076544,42.285,1.051,-2.993,0.2038,-0.0289,0.93,-1.997,0.94,-14.685,0.024764,-0.159038,0.42811,"$VNYMR,+042.285,+001.051,-002.993,+00.2038,-00.0289,+00.9300,-01.997,+00.940,-14.685,+00.024764,-00.159038,+00.428110*6B"
1710358271.850582,42.792,1.118,-3.052,0.2048,-0.0322,0.9339,-3.011,-1.284,-12.443,-0.121212,0.160012,0.24194,"$VNYMR,+042.792,+001.118,-003.052,+00.2048,-00.0322,+00.9339,-03.011,-01.284,-12.443,-00.121212,+00.160012,+00.241940*65"
1710358271.8863342,42.858,1.614,-3.352,0.1974,-0.0365,0.9349,-2.192,-0.163,-8.503,-0.23721,0.389614,-0.050024,"$VNYMR,+042.858,+001.614,-003.352,+00.1974,-00.0365,+00.9349,-02.192,-00.163,-08.503,-00.237210,+00.389614,-00.050024*67"
1710358271.9002683,42.679,1.996,-3.618,0.1942,-0.0376,0.9386,-0.425,1.108,-5.779,-0.160336,0.150706,-0.155741,"$VNYMR,+042.679,+001.996,-003.618,+00.1942,-00.0376,+00.9386,-00.425,+01.108,-05.779,-00.160336,+00.150706,-00.155741*63"
1710358271.929187,42.623,1.944,-3.836,0.1944,-0.0276,0.927,0.857,3.434,-6.564,-0.137001,-0.130447,0.099458,"$VNYMR,+042.623,+001.944,-003.836,+00.1944,-00.0276,+00.9270,+00.857,+03.434,-06.564,-00.137001,-00.130447,+00.099458*6B"
1710358271.9533749,43.025,1.521,-3.885,0.1982,-0.0443,0.9275,-0.004,0.897,-7.799,-0.003762,-0.436916,0.307212,"$VNYMR,+043.025,+001.521,-003.885,+00.1982,-00.0443,+00.9275,-00.004,+00.897,-07.799,-00.003762,-00.436916,+00.307212*6F"
1710358271.9789586,43.433,0.883,-3.815,0.2055,-0.0422,0.9303,-1.353,-1.226,-10.404,0.039085,-0.415938,0.180982,"$VNYMR,+043.433,+000.883,-003.815,+00.2055,-00.0422,+00.9303,-01.353,-01.226,-10.404,+00.039085,-00.415938,+00.180982*63"
1710358272.0054643,43.54,0.545,-3.869,0.2086,-0.0456,0.9318,-1.37,-0.299,-10.658,-0.059261,-0.141124,-0.002039,"$VNYMR,+043.540,+000.545,-003.869,+00.2086,-00.0456,+00.9318,-01.370,-00.299,-10.658,-00.059261,-00.141124,-00.002039*6F"
1710358272.0301638,43.536,0.437,-3.952,0.2096,-0.0456,0.9318,-0.354,0.528,-9.463,-0.03457,-0.037738,-0.011565,"$VNYMR,+043.536,+000.437,-003.952,+00.2096,-00.0456,+00.9318,-00.354,+00.528,-09.463,-00.034570,-00.037738,-00.011565*65"
1710358272.0558057,43.434,0.4,-4.027,0.2108,-0.0412,0.9306,0.466,0.88,-8.383,-0.072948,-0.01844,-0.117766,"$VNYMR,+043.434,+000.400,-004.027,+00.2108,-00.0412,+00.9306,+00.466,+00.880,-08.383,-00.072948,-00.018440,-00.117766*62"
1710358272.0818815,43.34,0.319,-4.145,0.2056,-0.0411,0.9316,1.04,2.588,-8.287,-0.098753,-0.082014,-0.001353,"$VNYMR,+043.340,+000.319,-004.145,+00.2056,-00.0411,+00.9316,+01.040,+02.588,-08.287,-00.098753,-00.082014,-00.001353*65"
1710358272.1066308,43.587,0.21,-4.253,0.2106,-0.0468,0.9281,0.739,2.658,-9.225,-0.055665,-0.087719,0.283316,"$VNYMR,+043.587,+000.210,-004.253,+00.2106,-00.0468,+00.9281,+00.739,+02.658,-09.225,-00.055665,-00.087719,+00.283316*6B"
1710358272.1327577,43.985,0.143,-4.346,0.2116,-0.0479,0.9282,-0.019,0.302,-9.318,-0.078671,-0.052336,0.203207,"$VNYMR,+043.985,+000.143,-004.346,+00.2116,-00.0479,+00.9282,-00.019,+00.302,-09.318,-00.078671,-00.052336,+00.203207*61"
1710358272.1580281,44.131,0.112,-4.471,0.2096,-0.0479,0.9293,-0.015,0.887,-8.561,-0.080829,-0.041626,0.06428,"$VNYMR,+044.131,+000.112,-004.471,+00.2096,-00.0479,+00.9293,-00.015,+00.887,-08.561,-00.080829,-00.041626,+00.064280*62"
1710358272.1838315,44.244,-0.016,-4.569,0.2115,-0.0524,0.927,0.131,0.442,-8.673,-0.062316,-0.12999,0.04606,"$VNYMR,+044.244,-000.016,-004.569,+00.2115,-00.0524,+00.9270,+00.131,+00.442,-08.673,-00.062316,-00.129990,+00.046060*68"
1710358272.237732,44.213,-0.274,-4.631,0.2148,-0.0435,0.9245,0.147,0.838,-9.116,-0.008007,-0.233074,-0.081633,"$VNYMR,+044.213,-000.274,-004.631,+00.2148,-00.0435,+00.9245,+00.147,+00.838,-09.116,-00.008007,-00.233074,-00.081633*61"
1710358272.2801747,44.199,-0.598,-4.604,0.2167,-0.0513,0.926,0.504,2.012,-10.31,0.016605,-0.189918,0.03691,"$VNYMR,+044.199,-000.598,-004.604,+00.2167,-00.0513,+00.9260,+00.504,+02.012,-10.310,+00.016605,-00.189918,+00.036910*69"
1710358272.3234909,44.257,-0.641,-4.703,0.2177,-0.0536,0.9273,0.438,0.344,-10.751,-0.117822,0.080808,-0.008746,"$VNYMR,+044.257,-000.641,-004.703,+00.2177,-00.0536,+00.9273,+00.438,+00.344,-10.751,-00.117822,+00.080808,-00.008746*65"
1710358272.3661423,44.047,-0.418,-4.933,0.2177,-0.0547,0.9311,0.772,1.228,-9.598,-0.157227,0.191461,-0.172304,"$VNYMR,+044.047,-000.418,-004.933,+00.2177,-00.0547,+00.9311,+00.772,+01.228,-09.598,-00.157227,+00.191461,-00.172304*69"
1710358272.4096174,43.865,-0.192,-5.075,0.2125,-0.0557,0.9296,0.726,1.013,-9.754,-0.058171,0.165954,-0.078066,"$VNYMR,+043.865,-000.192,-005.075,+00.2125,-00.0557,+00.9296,+00.726,+01.013,-09.754,-00.058171,+00.165954,-00.078066*68"
1710358272.4534352,43.612,0.114,-5.159,0.2146,-0.0535,0.9271,0.093,-0.712,-10.346,-0.064405,0.288885,-0.240582,"$VNYMR,+043.612,+000.114,-005.159,+00.2146,-00.0535,+00.9271,+00.093,-00.712,-10.346,-00.064405,+00.288885,-00.240582*6C"
1710358272.4965746,42.987,0.521,-5.137,0.2084,-0.0523,0.9306,0.328,1.374,-9.612,0.117261,0.289,-0.460029,"$VNYMR,+042.987,+000.521,-005.137,+00.2084,-00.0523,+00.9306,+00.328,+01.374,-09.612,+00.117261,+00.289000,-00.460029*62"
1710358272.540583,42.428,0.666,-4.842,0.2095,-0.049,0.9306,0.858,1.514,-10.608,0.238212,0.078183,-0.322043,"$VNYMR,+042.428,+000.666,-004.842,+00.2095,-00.0490,+00.9306,+00.858,+01.514,-10.608,+00.238212,+00.078183,-00.322043*67"
1710358272.5892332,41.94,0.834,-4.487,0.2066,-0.0423,0.9354,1.204,0.343,-10.75,0.271337,0.151444,-0.356992,"$VNYMR,+041.940,+000.834,-004.487,+00.2066,-00.0423,+00.9354,+01.204,+00.343,-10.750,+00.271337,+00.151444,-00.356992*6A"
1710358272.6335006,41.414,0.872,-4.079,0.2098,-0.039,0.9318,0.946,1.129,-10.828,0.303137,-0.048877,-0.331555,"$VNYMR,+041.414,+000.872,-004.079,+00.2098,-00.0390,+00.9318,+00.946,+01.129,-10.828,+00.303137,-00.048877,-00.331555*67"
1710358272.6748629,41.132,0.665,-3.544,0.2101,-0.0257,0.929,-0.339,0.73,-12.821,0.418943,-0.143406,-0.130038,"$VNYMR,+041.132,+000.665,-003.544,+00.2101,-00.0257,+00.9290,-00.339,+00.730,-12.821,+00.418943,-00.143406,-00.130038*63"
1710358272.7178364,40.998,0.365,-2.887,0.2132,-0.0268,0.9343,-2.253,-0.855,-13.578,0.509975,-0.210813,-0.092062,"$VNYMR,+040.998,+000.365,-002.887,+00.2132,-00.0268,+00.9343,-02.253,-00.855,-13.578,+00.509975,-00.210813,-00.092062*65"
1710358272.7608328,40.668,0.258,-2.268,0.2166,-0.0191,0.9343,-2.872,-1.659,-12.808,0.357718,0.084064,-0.335939,"$VNYMR,+040.668,+000.258,-002.268,+00.2166,-00.0191,+00.9343,-02.872,-01.659,-12.808,+00.357718,+00.084064,-00.335939*64"
1710358272.811215,39.984,0.632,-1.927,0.2116,-0.0112,0.9377,-1.414,0.147,-9.95,0.180912,0.370471,-0.502505,"$VNYMR,+039.984,+000.632,-001.927,+00.2116,-00.0112,+00.9377,-01.414,+00.147,-09.950,+00.180912,+00.370471,-00.502505*64"
1710358272.853781,39.274,1.165,-1.776,0.2075,-0.0067,0.9362,0.26,1.069,-7.451,0.061129,0.357894,-0.459805,"$VNYMR,+039.274,+001.165,-001.776,+00.2075,-00.0067,+00.9362,+00.260,+01.069,-07.451,+00.061129,+00.357894,-00.459805*6F"
1710358272.8965485,38.761,1.483,-1.609,0.2076,-0.0023,0.9374,0.789,0.918,-6.569,0.184476,0.112949,-0.272979,"$VNYMR,+038.761,+001.483,-001.609,+00.2076,-00.0023,+00.9374,+00.789,+00.918,-06.569,+00.184476,+00.112949,-00.272979*6A"
1710358272.9392018,38.556,1.365,-1.224,0.2056,-0.0022,0.9436,0.381,-0.236,-8.587,0.363645,-0.200808,-0.066512,"$VNYMR,+038.556,+001.365,-001.224,+00.2056,-00.0022,+00.9436,+00.381,-00.236,-08.587,+00.363645,-00.200808,-00.066512*64"
1710358272.9816744,38.347,1.001,-0.631,0.2129,0.0021,0.9389,-0.256,-1.905,-10.73,0.421325,-0.251274,-0.239034,"$VNYMR,+038.347,+001.001,-000.631,+00.2129,+00.0021,+00.9389,-00.256,-01.905,-10.730,+00.421325,-00.251274,-00.239034*63"
1710358273.0266309,37.893,0.668,-0.116,0.2163,0.012,0.9414,-0.1,-0.531,-11.611,0.327242,-0.185868,-0.326029,"$VNYMR,+037.893,+000.668,-000.116,+00.2163,+00.0120,+00.9414,-00.100,-00.531,-11.611,+00.327242,-00.185868,-00.326029*6F"
1710358273.0686982,37.513,0.501,0.281,0.2164,0.0153,0.9388,0.377,0.14,-10.522,0.232678,-0.064687,-0.217618,"$VNYMR,+037.513,+000.501,+000.281,+00.2164,+00.0153,+00.9388,+00.377,+00.140,-10.522,+00.232678,-00.064687,-00.217618*60"
1710358273.1124334,37.196,0.461,0.493,0.2154,0.0187,0.94,0.418,-0.186,-8.785,0.081173,-0.010726,-0.219289,"$VNYMR,+037.196,+000.461,+000.493,+00.2154,+00.0187,+00.9400,+00.418,-00.186,-08.785,+00.081173,-00.010726,-00.219289*6F"
1710358273.156158,36.755,0.558,0.418,0.2165,0.0187,0.9363,0.326,-0.87,-7.846,-0.100444,0.113979,-0.350084,"$VNYMR,+036.755,+000.558,+000.418,+00.2165,+00.0187,+00.9363,+00.326,-00.870,-07.846,-00.100444,+00.113979,-00.350084*66"
1710358273.1991909,36.192,0.595,0.307,0.2176,0.0198,0.9388,0.623,-0.903,-7.219,-0.067763,-0.047112,-0.41337,"$VNYMR,+036.192,+000.595,+000.307,+00.2176,+00.0198,+00.9388,+00.623,-00.903,-07.219,-00.067763,-00.047112,-00.413370*62"
1710358273.2439458,35.558,0.386,0.217,0.2197,0.0208,0.9402,0.89,-0.63,-8.234,-0.056112,-0.19179,-0.44414,"$VNYMR,+035.558,+000.386,+000.217,+00.2197,+00.0208,+00.9402,+00.890,-00.630,-08.234,-00.056112,-00.191790,-00.444140*69"
1710358273.2818604,34.932,0.053,0.15,0.225,0.0252,0.9366,1.095,0.553,-9.202,-0.038623,-0.270502,-0.394704,"$VNYMR,+034.932,+000.053,+000.150,+00.2250,+00.0252,+00.9366,+01.095,+00.553,-09.202,-00.038623,-00.270502,-00.394704*6D"
1710358273.2972233,34.569,-0.271,0.029,0.226,0.0274,0.9328,1.119,0.362,-9.949,-0.133481,-0.19201,-0.190868,"$VNYMR,+034.569,-000.271,+000.029,+00.2260,+00.0274,+00.9328,+01.119,+00.362,-09.949,-00.133481,-00.192010,-00.190868*66"
1710358273.3227427,34.309,-0.436,-0.263,0.2292,0.0306,0.9278,1.034,-0.358,-9.742,-0.239602,-0.064606,-0.197634,"$VNYMR,+034.309,-000.436,-000.263,+00.2292,+00.0306,+00.9278,+01.034,-00.358,-09.742,-00.239602,-00.064606,-00.197634*69"
1710358273.3490152,33.982,-0.477,-0.645,0.23,0.0184,0.9331,0.94,-0.086,-8.626,-0.297878,-0.037337,-0.228748,"$VNYMR,+033.982,-000.477,-000.645,+00.2300,+00.0184,+00.9331,+00.940,-00.086,-08.626,-00.297878,-00.037337,-00.228748*6E"
1710358273.373916,33.808,-0.579,-0.99,0.23,0.0173,0.9357,0.417,-0.851,-9.093,-0.213863,-0.053853,-0.046414,"$VNYMR,+033.808,-000.579,-000.990,+00.2300,+00.0173,+00.9357,+00.417,-00.851,-09.093,-00.213863,-00.053853,-00.046414*64"
1710358273.3994231,33.626,-0.85,-1.281,0.233,0.0161,0.9321,0.04,-0.561,-10.072,-0.141152,-0.332049,-0.114782,"$VNYMR,+033.626,-000.850,-001.281,+00.2330,+00.0161,+00.9321,+00.040,-00.561,-10.072,-00.141152,-00.332049,-00.114782*66"
1710358273.4251425,33.484,-1.251,-1.396,0.2341,0.015,0.9309,-0.521,-0.955,-12.791,-0.086478,-0.202587,-0.13264,"$VNYMR,+033.484,-001.251,-001.396,+00.2341,+00.0150,+00.9309,-00.521,-00.955,-12.791,-00.086478,-00.202587,-00.132640*61"
1710358273.450634,33.195,-1.302,-1.58,0.2351,0.0161,0.9271,-0.069,-0.518,-13.993,-0.179715,0.142209,-0.261004,"$VNYMR,+033.195,-001.302,-001.580,+00.2351,+00.0161,+00.9271,-00.069,-00.518,-13.993,-00.179715,+00.142209,-00.261004*64"
1710358273.4760776,32.771,-0.785,-1.848,0.2343,0.0261,0.9269,1.176,1.104,-12.266,-0.176332,0.443998,-0.267628,"$VNYMR,+032.771,-000.785,-001.848,+00.2343,+00.0261,+00.9269,+01.176,+01.104,-12.266,-00.176332,+00.443998,-00.267628*62"
1710358273.501455,32.537,-0.27,-1.991,0.2279,0.0173,0.9343,1.3,2.869,-11.587,-0.018691,0.262619,-0.021718,"$VNYMR,+032.537,-000.270,-001.991,+00.2279,+00.0173,+00.9343,+01.300,+02.869,-11.587,-00.018691,+00.262619,-00.021718*64"
1710358273.5291553,32.811,-0.029,-1.848,0.2227,0.0174,0.9353,-0.522,1.812,-11.995,0.111642,0.10498,0.322698,"$VNYMR,+032.811,-000.029,-001.848,+00.2227,+00.0174,+00.9353,-00.522,+01.812,-11.995,+00.111642,+00.104980,+00.322698*69"
1710358273.553352,33.344,0.056,-1.896,0.2225,0.0119,0.9354,-2.624,-0.391,-13.232,-0.022562,0.094893,0.396931,"$VNYMR,+033.344,+000.056,-001.896,+00.2225,+00.0119,+00.9354,-02.624,-00.391,-13.232,-00.022562,+00.094893,+00.396931*6A"
1710358273.5788312,33.634,0.394,-1.976,0.2225,0.0108,0.9367,-3.548,-2.609,-11.795,-0.130672,0.35674,0.030521,"$VNYMR,+033.634,+000.394,-001.976,+00.2225,+00.0108,+00.9367,-03.548,-02.609,-11.795,-00.130672,+00.356740,+00.030521*60"
1710358273.6045086,33.345,0.939,-2.149,0.2183,0.0097,0.9365,-2.26,-0.763,-8.18,-0.092238,0.35175,-0.300988,"$VNYMR,+033.345,+000.939,-002.149,+00.2183,+00.0097,+00.9365,-02.260,-00.763,-08.180,-00.092238,+00.351750,-00.300988*66"
1710358273.6298587,32.832,1.176,-2.285,0.2163,0.0098,0.9402,-0.059,1.097,-6.523,-0.080984,0.064278,-0.357626,"$VNYMR,+032.832,+001.176,-002.285,+00.2163,+00.0098,+00.9402,-00.059,+01.097,-06.523,-00.080984,+00.064278,-00.357626*64"
1710358273.6561072,32.495,0.956,-2.405,0.2175,0.0164,0.9363,1.195,3.101,-7.452,-0.0578,-0.270884,-0.104457,"$VNYMR,+032.495,+000.956,-002.405,+00.2175,+00.0164,+00.9363,+01.195,+03.101,-07.452,-00.057800,-00.270884,-00.104457*66"
1710358273.6818962,32.669,0.343,-2.359,0.2215,0.013,0.9341,0.176,0.721,-9.398,0.075353,-0.503978,0.175168,"$VNYMR,+032.669,+000.343,-002.359,+00.2215,+00.0130,+00.9341,+00.176,+00.721,-09.398,+00.075353,-00.503978,+00.175168*64"
1710358273.707241,32.903,-0.247,-2.26,0.2267,0.0129,0.9331,-1.131,-1.359,-11.3,0.024223,-0.31,0.092185,"$VNYMR,+032.903,-000.247,-002.260,+00.2267,+00.0129,+00.9331,-01.131,-01.359,-11.300,+00.024223,-00.310000,+00.092185*6E"
1710358273.7328498,32.765,-0.353,-2.338,0.2298,0.0118,0.9358,-1.426,-2.159,-10.406,-0.102912,0.074211,-0.262846,"$VNYMR,+032.765,-000.353,-002.338,+00.2298,+00.0118,+00.9358,-01.426,-02.159,-10.406,-00.102912,+00.074211,-00.262846*65"
1710358273.7619498,32.184,-0.207,-2.49,0.2278,0.0129,0.9356,-0.222,-0.264,-8.459,-0.08911,0.119943,-0.459267,"$VNYMR,+032.184,-000.207,-002.490,+00.2278,+00.0129,+00.9356,-00.222,-00.264,-08.459,-00.089110,+00.119943,-00.459267*6D"
1710358273.7843084,31.53,-0.146,-2.566,0.2279,0.0173,0.933,0.958,2.031,-7.64,-0.028333,0.005764,-0.396923,"$VNYMR,+031.530,-000.146,-002.566,+00.2279,+00.0173,+00.9330,+00.958,+02.031,-07.640,-00.028333,+00.005764,-00.396923*66"
1710358273.8099935,31.143,-0.237,-2.534,0.23,0.0206,0.9306,1.359,1.461,-7.99,0.045599,-0.078556,-0.224129,"$VNYMR,+031.143,-000.237,-002.534,+00.2300,+00.0206,+00.9306,+01.359,+01.461,-07.990,+00.045599,-00.078556,-00.224129*6B"
1710358273.8357775,30.854,-0.452,-2.485,0.2311,0.0206,0.9306,1.017,1.336,-8.159,0.019251,-0.205736,-0.207251,"$VNYMR,+030.854,-000.452,-002.485,+00.2311,+00.0206,+00.9306,+01.017,+01.336,-08.159,+00.019251,-00.205736,-00.207251*6E"
1710358273.8615565,30.647,-0.795,-2.488,0.2341,0.0183,0.9283,0.486,0.91,-9.286,-0.031765,-0.225446,-0.133102,"$VNYMR,+030.647,-000.795,-002.488,+00.2341,+00.0183,+00.9283,+00.486,+00.910,-09.286,-00.031765,-00.225446,-00.133102*6B"
1710358273.8875527,30.501,-1.04,-2.559,0.2343,0.0261,0.932,0.281,0.27,-9.423,-0.07947,-0.128605,-0.09991,"$VNYMR,+030.501,-001.040,-002.559,+00.2343,+00.0261,+00.9320,+00.281,+00.270,-09.423,-00.079470,-00.128605,-00.099910*63"
1710358273.912724,30.263,-1.197,-2.71,0.2373,0.0216,0.9271,0.504,-0.068,-9.297,-0.054096,-0.114996,-0.202505,"$VNYMR,+030.263,-001.197,-002.710,+00.2373,+00.0216,+00.9271,+00.504,-00.068,-09.297,-00.054096,-00.114996,-00.202505*6D"
1710358273.9383755,29.835,-1.377,-2.679,0.2374,0.0261,0.927,0.665,-0.101,-9.741,0.013305,-0.096768,-0.362269,"$VNYMR,+029.835,-001.377,-002.679,+00.2374,+00.0261,+00.9270,+00.665,-00.101,-09.741,+00.013305,-00.096768,-00.362269*6E"
1710358273.9644432,29.33,-1.426,-2.582,0.2406,0.0282,0.9284,0.585,0.773,-10.032,0.093729,0.013179,-0.308671,"$VNYMR,+029.330,-001.426,-002.582,+00.2406,+00.0282,+00.9284,+00.585,+00.773,-10.032,+00.093729,+00.013179,-00.308671*6D"
1710358273.990068,28.853,-1.315,-2.489,0.2386,0.0283,0.9334,0.555,-0.232,-10.426,0.028056,0.164997,-0.350645,"$VNYMR,+028.853,-001.315,-002.489,+00.2386,+00.0283,+00.9334,+00.555,-00.232,-10.426,+00.028056,+00.164997,-00.350645*6D"
1710358274.0160017,28.174,-1.097,-2.381,0.2408,0.0338,0.9296,0.145,-0.072,-10.028,0.064451,0.164241,-0.551519,"$VNYMR,+028.174,-001.097,-002.381,+00.2408,+00.0338,+00.9296,+00.145,-00.072,-10.028,+00.064451,+00.164241,-00.551519*61"
1710358274.0415375,27.365,-0.938,-2.215,0.2377,0.0383,0.9269,0.295,1.265,-11.075,0.152353,0.128931,-0.528183,"$VNYMR,+027.365,-000.938,-002.215,+00.2377,+00.0383,+00.9269,+00.295,+01.265,-11.075,+00.152353,+00.128931,-00.528183*6A"
1710358274.067258,26.587,-0.706,-1.984,0.239,0.046,0.9281,0.207,0.759,-11.448,0.125047,0.218651,-0.554395,"$VNYMR,+026.587,-000.706,-001.984,+00.2390,+00.0460,+00.9281,+00.207,+00.759,-11.448,+00.125047,+00.218651,-00.554395*6C"
1710358274.0932124,25.713,-0.314,-1.874,0.2327,0.045,0.9316,0.171,-0.006,-11.255,0.040897,0.336048,-0.646499,"$VNYMR,+025.713,-000.314,-001.874,+00.2327,+00.0450,+00.9316,+00.171,-00.006,-11.255,+00.040897,+00.336048,-00.646499*65"
1710358274.1193645,24.636,0.116,-1.832,0.2278,0.054,0.9325,0.41,1.797,-11.007,0.041798,0.267049,-0.756641,"$VNYMR,+024.636,+000.116,-001.832,+00.2278,+00.0540,+00.9325,+00.410,+01.797,-11.007,+00.041798,+00.267049,-00.756641*60"
1710358274.1444752,23.777,0.365,-1.707,0.2281,0.0673,0.931,0.649,1.113,-11.277,0.107067,0.124545,-0.551995,"$VNYMR,+023.777,+000.365,-001.707,+00.2281,+00.0673,+00.9310,+00.649,+01.113,-11.277,+00.107067,+00.124545,-00.551995*64"
1710358274.1706252,23.016,0.495,-1.531,0.2259,0.0618,0.9297,-0.025,0.561,-11.592,0.113425,0.096556,-0.524033,"$VNYMR,+023.016,+000.495,-001.531,+00.2259,+00.0618,+00.9297,-00.025,+00.561,-11.592,+00.113425,+00.096556,-00.524033*61"
1710358274.1963263,22.359,0.606,-1.437,0.224,0.0696,0.9333,-0.845,0.276,-11.337,0.064934,0.050106,-0.402265,"$VNYMR,+022.359,+000.606,-001.437,+00.2240,+00.0696,+00.9333,-00.845,+00.276,-11.337,+00.064934,+00.050106,-00.402265*63"
1710358274.2218037,21.783,0.595,-1.343,0.2238,0.063,0.9359,-1.557,-0.693,-11.535,0.071787,-0.011241,-0.415167,"$VNYMR,+021.783,+000.595,-001.343,+00.2238,+00.0630,+00.9359,-01.557,-00.693,-11.535,+00.071787,-00.011241,-00.415167*65"
1710358274.2476246,21.223,0.679,-1.271,0.225,0.0685,0.9372,-1.606,-0.991,-11.216,0.032388,0.16239,-0.388797,"$VNYMR,+021.223,+000.679,-001.271,+00.2250,+00.0685,+00.9372,-01.606,-00.991,-11.216,+00.032388,+00.162390,-00.388797*66"
1710358274.2749202,20.604,1.07,-1.32,0.2209,0.073,0.9306,-1.155,-0.969,-9.125,-0.039789,0.343868,-0.451872,"$VNYMR,+020.604,+001.070,-001.320,+00.2209,+00.0730,+00.9306,-01.155,-00.969,-09.125,-00.039789,+00.343868,-00.451872*63"
1710358274.3008015,19.969,1.621,-1.482,0.2168,0.0709,0.9405,-0.388,-1.12,-7.289,-0.167734,0.419041,-0.486134,"$VNYMR,+019.969,+001.621,-001.482,+00.2168,+00.0709,+00.9405,-00.388,-01.120,-07.289,-00.167734,+00.419041,-00.486134*60"
1710358274.3270082,19.427,1.993,-1.557,0.2127,0.0765,0.9364,0.045,-1.338,-7.001,0.06062,0.119277,-0.314766,"$VNYMR,+019.427,+001.993,-001.557,+00.2127,+00.0765,+00.9364,+00.045,-01.338,-07.001,+00.060620,+00.119277,-00.314766*6F"
1710358274.368219,18.933,1.816,-1.225,0.2107,0.0776,0.9388,0.003,-1.181,-8.843,0.352277,-0.246345,-0.352471,"$VNYMR,+018.933,+001.816,-001.225,+00.2107,+00.0776,+00.9388,+00.003,-01.181,-08.843,+00.352277,-00.246345,-00.352471*65"
1710358274.410766,18.335,1.36,-0.676,0.215,0.0842,0.9352,0.318,0.527,-10.695,0.344478,-0.308211,-0.459917,"$VNYMR,+018.335,+001.360,-000.676,+00.2150,+00.0842,+00.9352,+00.318,+00.527,-10.695,+00.344478,-00.308211,-00.459917*63"
1710358274.4537194,17.863,1.191,-0.329,0.2172,0.0908,0.9301,0.746,1.222,-11.196,0.194895,0.011782,-0.261068,"$VNYMR,+017.863,+001.191,-000.329,+00.2172,+00.0908,+00.9301,+00.746,+01.222,-11.196,+00.194895,+00.011782,-00.261068*69"
1710358274.4949756,17.566,1.427,-0.219,0.2175,0.1019,0.9312,0.534,-0.48,-9.115,0.006292,0.223351,-0.199248,"$VNYMR,+017.566,+001.427,-000.219,+00.2175,+00.1019,+00.9312,+00.534,-00.480,-09.115,+00.006292,+00.223351,-00.199248*60"
1710358274.536563,17.221,1.654,-0.295,0.2153,0.0998,0.9261,0.421,-0.936,-7.321,-0.07572,0.09132,-0.239825,"$VNYMR,+017.221,+001.654,-000.295,+00.2153,+00.0998,+00.9261,+00.421,-00.936,-07.321,-00.075720,+00.091320,-00.239825*63"
1710358274.5785174,16.813,1.68,-0.409,0.2142,0.0953,0.9324,0.246,-2.08,-7.685,-0.053842,-0.009841,-0.325977,"$VNYMR,+016.813,+001.680,-000.409,+00.2142,+00.0953,+00.9324,+00.246,-02.080,-07.685,-00.053842,-00.009841,-00.325977*60"
1710358274.6202955,16.211,1.595,-0.463,0.2131,0.0931,0.9337,0.569,-1.559,-7.598,-0.023328,-0.103753,-0.480342,"$VNYMR,+016.211,+001.595,-000.463,+00.2131,+00.0931,+00.9337,+00.569,-01.559,-07.598,-00.023328,-00.103753,-00.480342*65"
1710358274.662452,15.577,1.32,-0.435,0.2167,0.1108,0.9285,1.418,0.371,-8.181,0.038511,-0.231605,-0.397932,"$VNYMR,+015.577,+001.320,-000.435,+00.2167,+00.1108,+00.9285,+01.418,+00.371,-08.181,+00.038511,-00.231605,-00.397932*60"
1710358274.688982,15.248,1.099,-0.374,0.2185,0.0997,0.9313,1.59,0.527,-9.879,0.064252,-0.107768,-0.131193,"$VNYMR,+015.248,+001.099,-000.374,+00.2185,+00.0997,+00.9313,+01.590,+00.527,-09.879,+00.064252,-00.107768,-00.131193*66"
1710358274.7039185,15.079,1.089,-0.307,0.2177,0.1119,0.9235,1.258,-0.387,-9.878,0.027748,0.068885,-0.122212,"$VNYMR,+015.079,+001.089,-000.307,+00.2177,+00.1119,+00.9235,+01.258,-00.387,-09.878,+00.027748,+00.068885,-00.122212*6F"
1710358274.7328756,14.841,1.217,-0.339,0.2175,0.1042,0.9299,1.001,-0.814,-9.087,-0.041161,0.065525,-0.194756,"$VNYMR,+014.841,+001.217,-000.339,+00.2175,+00.1042,+00.9299,+01.001,-00.814,-09.087,-00.041161,+00.065525,-00.194756*60"
1710358274.757742,14.517,1.172,-0.479,0.2146,0.112,0.9284,0.877,-0.614,-9.855,-0.124135,-0.088875,-0.250504,"$VNYMR,+014.517,+001.172,-000.479,+00.2146,+00.1120,+00.9284,+00.877,-00.614,-09.855,-00.124135,-00.088875,-00.250504*65"
1710358274.7841575,14.217,1.201,-0.599,0.2196,0.1041,0.93,0.389,-1.512,-11.99,-0.113606,0.145406,-0.264562,"$VNYMR,+014.217,+001.201,-000.599,+00.2196,+00.1041,+00.9300,+00.389,-01.512,-11.990,-00.113606,+00.145406,-00.264562*69"
1710358274.8113399,13.73,1.563,-0.83,0.2133,0.102,0.931,0.438,-1.152,-12.283,-0.156796,0.297989,-0.376644,"$VNYMR,+013.730,+001.563,-000.830,+00.2133,+00.1020,+00.9310,+00.438,-01.152,-12.283,-00.156796,+00.297989,-00.376644*67"
1710358274.8326862,13.165,1.916,-1.018,0.2104,0.111,0.9244,0.994,-0.222,-11.93,-0.13975,0.272588,-0.398354,"$VNYMR,+013.165,+001.916,-001.018,+00.2104,+00.1110,+00.9244,+00.994,-00.222,-11.930,-00.139750,+00.272588,-00.398354*65"
1710358274.8640246,12.59,2.341,-1.297,0.205,0.1022,0.9344,1.5,0.593,-11.332,-0.196296,0.309557,-0.385021,"$VNYMR,+012.590,+002.341,-001.297,+00.2050,+00.1022,+00.9344,+01.500,+00.593,-11.332,-00.196296,+00.309557,-00.385021*6E"
1710358274.9093537,12.141,2.674,-1.548,0.2029,0.1011,0.933,1.773,2.117,-11.548,-0.127117,0.152129,-0.233879,"$VNYMR,+012.141,+002.674,-001.548,+00.2029,+00.1011,+00.9330,+01.773,+02.117,-11.548,-00.127117,+00.152129,-00.233879*62"
1710358274.9511793,12.15,2.612,-1.514,0.201,0.1067,0.9328,1.418,2.933,-13.699,0.10138,-0.12101,0.186741,"$VNYMR,+012.150,+002.612,-001.514,+00.2010,+00.1067,+00.9328,+01.418,+02.933,-13.699,+00.101380,-00.121010,+00.186741*6C"
1710358274.9939866,12.682,2.678,-1.415,0.2011,0.1122,0.9315,-0.482,0.674,-14.966,-0.010427,0.220901,0.485809,"$VNYMR,+012.682,+002.678,-001.415,+00.2011,+00.1122,+00.9315,-00.482,+00.674,-14.966,-00.010427,+00.220901,+00.485809*60"
1710358275.039908,13.264,3.264,-1.564,0.1978,0.1067,0.9327,-2.101,-1.707,-11.599,-0.156635,0.458452,0.34001,"$VNYMR,+013.264,+003.264,-001.564,+00.1978,+00.1067,+00.9327,-02.101,-01.707,-11.599,-00.156635,+00.458452,+00.340010*6F"
1710358275.0829604,13.525,3.973,-1.705,0.1935,0.0968,0.939,-2.501,-2.319,-8.329,-0.052926,0.491256,0.088364,"$VNYMR,+013.525,+003.973,-001.705,+00.1935,+00.0968,+00.9390,-02.501,-02.319,-08.329,-00.052926,+00.491256,+00.088364*66"
1710358275.1267326,13.377,4.547,-1.74,0.1851,0.0948,0.9411,-1.593,-1.751,-6.781,-0.017228,0.34924,-0.207267,"$VNYMR,+013.377,+004.547,-001.740,+00.1851,+00.0948,+00.9411,-01.593,-01.751,-06.781,-00.017228,+00.349240,-00.207267*6E"
1710358275.170308,12.899,4.931,-1.802,0.1852,0.1003,0.9398,0.34,0.027,-5.658,-0.017575,0.194783,-0.396573,"$VNYMR,+012.899,+004.931,-001.802,+00.1852,+00.1003,+00.9398,+00.340,+00.027,-05.658,-00.017575,+00.194783,-00.396573*66"
1710358275.214219,12.444,4.746,-1.752,0.1853,0.1036,0.941,1.928,4.565,-6.17,0.12573,-0.371013,-0.139831,"$VNYMR,+012.444,+004.746,-001.752,+00.1853,+00.1036,+00.9410,+01.928,+04.565,-06.170,+00.125730,-00.371013,-00.139831*6A"
1710358275.2593327,12.7,3.881,-1.501,0.1917,0.1113,0.9323,1.101,2.22,-10.14,0.183976,-0.683182,0.305718,"$VNYMR,+012.700,+003.881,-001.501,+00.1917,+00.1113,+00.9323,+01.101,+02.220,-10.140,+00.183976,-00.683182,+00.305718*67"
1710358275.3019567,13.148,3.061,-1.274,0.1988,0.1034,0.934,-0.533,-0.718,-12.471,0.09726,-0.457015,0.229714,"$VNYMR,+013.148,+003.061,-001.274,+00.1988,+00.1034,+00.9340,-00.533,-00.718,-12.471,+00.097260,-00.457015,+00.229714*6A"
1710358275.3444507,13.213,2.791,-1.263,0.2019,0.1011,0.9342,-0.933,-1.552,-11.462,-0.054271,-0.030329,-0.084381,"$VNYMR,+013.213,+002.791,-001.263,+00.2019,+00.1011,+00.9342,-00.933,-01.552,-11.462,-00.054271,-00.030329,-00.084381*64"
1710358275.3911037,12.93,2.931,-1.39,0.2029,0.1011,0.9318,0.188,-0.757,-8.722,-0.094152,0.138289,-0.254787,"$VNYMR,+012.930,+002.931,-001.390,+00.2029,+00.1011,+00.9318,+00.188,-00.757,-08.722,-00.094152,+00.138289,-00.254787*6A"
1710358275.4361973,12.497,3.056,-1.526,0.1998,0.1012,0.9354,1.508,0.237,-7.127,-0.062229,0.03954,-0.320788,"$VNYMR,+012.497,+003.056,-001.526,+00.1998,+00.1012,+00.9354,+01.508,+00.237,-07.127,-00.062229,+00.039540,-00.320788*6E"
1710358275.477951,12.106,2.965,-1.6,0.199,0.1112,0.9251,2.188,1.427,-7.19,-0.028107,-0.115415,-0.215609,"$VNYMR,+012.106,+002.965,-001.600,+00.1990,+00.1112,+00.9251,+02.188,+01.427,-07.190,-00.028107,-00.115415,-00.215609*62"
1710358275.5185843,11.966,2.708,-1.646,0.203,0.1044,0.933,1.734,1.091,-8.283,-0.004385,-0.226055,-0.033246,"$VNYMR,+011.966,+002.708,-001.646,+00.2030,+00.1044,+00.9330,+01.734,+01.091,-08.283,-00.004385,-00.226055,-00.033246*65"
1710358275.5547035,11.933,2.396,-1.618,0.2033,0.1177,0.929,0.971,-0.207,-9.409,0.038501,-0.19077,-0.048238,"$VNYMR,+011.933,+002.396,-001.618,+00.2033,+00.1177,+00.9290,+00.971,-00.207,-09.409,+00.038501,-00.190770,-00.048238*6D"
1710358275.5723903,11.746,2.135,-1.542,0.2062,0.1077,0.9331,0.689,0.029,-9.242,0.071426,-0.174127,-0.17853,"$VNYMR,+011.746,+002.135,-001.542,+00.2062,+00.1077,+00.9331,+00.689,+00.029,-09.242,+00.071426,-00.174127,-00.178530*6A"
1710358275.6227403,11.473,1.88,-1.418,0.2093,0.1076,0.9294,0.782,1.098,-9.776,0.083925,-0.159687,-0.183601,"$VNYMR,+011.473,+001.880,-001.418,+00.2093,+00.1076,+00.9294,+00.782,+01.098,-09.776,+00.083925,-00.159687,-00.183601*63"
1710358275.6464512,11.23,1.759,-1.332,0.2125,0.1098,0.9283,0.987,0.621,-10.166,0.057127,-0.027098,-0.179685,"$VNYMR,+011.230,+001.759,-001.332,+00.2125,+00.1098,+00.9283,+00.987,+00.621,-10.166,+00.057127,-00.027098,-00.179685*67"
1710358275.6640801,10.888,1.811,-1.262,0.2105,0.1143,0.9269,1.167,0.557,-9.866,0.065819,0.066821,-0.251761,"$VNYMR,+010.888,+001.811,-001.262,+00.2105,+00.1143,+00.9269,+01.167,+00.557,-09.866,+00.065819,+00.066821,-00.251761*63"
1710358275.6949465,-2.15,3.247,0.215,0.1818,0.1748,0.9296,1.019,1.651,-10.343,0.09766,-0.19306,-0.242862,"$VNYMR,-002.150,+003.247,+000.215,+00.1818,+00.1748,+00.9296,+01.019,+01.651,-10.343,+00.097660,-00.193060,-00.242862*66"
1710358275.7247481,-2.407,3.056,0.302,0.1818,0.1737,0.9321,0.908,0.069,-9.999,0.071791,-0.103896,-0.171559,"$VNYMR,-002.407,+003.056,+000.302,+00.1818,+00.1737,+00.9321,+00.908,+00.069,-09.999,+00.071791,-00.103896,-00.171559*69"
1710358275.746042,-2.806,2.991,0.372,0.184,0.1792,0.9321,0.739,-0.86,-10.053,0.060189,-0.006978,-0.352226,"$VNYMR,-002.806,+002.991,+000.372,+00.1840,+00.1792,+00.9321,+00.739,-00.860,-10.053,+00.060189,-00.006978,-00.352226*68"
1710358275.7710905,-3.477,3.022,0.424,0.1798,0.1781,0.9294,0.861,-0.267,-10.189,0.046672,0.042354,-0.513713,"$VNYMR,-003.477,+003.022,+000.424,+00.1798,+00.1781,+00.9294,+00.861,-00.267,-10.189,+00.046672,+00.042354,-00.513713*6C"
1710358275.797618,-4.199,3.107,0.482,0.1789,0.1804,0.9331,0.515,0.461,-11.094,0.0663,0.073639,-0.483689,"$VNYMR,-004.199,+003.107,+000.482,+00.1789,+00.1804,+00.9331,+00.515,+00.461,-11.094,+00.066300,+00.073639,-00.483689*68"
1710358275.824418,-4.759,3.32,0.582,0.177,0.1882,0.9316,0.441,-0.275,-11.794,0.109937,0.198874,-0.382978,"$VNYMR,-004.759,+003.320,+000.582,+00.1770,+00.1882,+00.9316,+00.441,-00.275,-11.794,+00.109937,+00.198874,-00.382978*69"
1710358275.8492835,-5.444,3.757,0.713,0.1718,0.1916,0.9301,0.882,-0.377,-11.354,0.092302,0.363708,-0.548143,"$VNYMR,-005.444,+003.757,+000.713,+00.1718,+00.1916,+00.9301,+00.882,-00.377,-11.354,+00.092302,+00.363708,-00.548143*68"
1710358275.8777046,-6.287,4.281,0.733,0.1678,0.1973,0.9336,1.539,1.173,-9.805,0.071996,0.289694,-0.579551,"$VNYMR,-006.287,+004.281,+000.733,+00.1678,+00.1973,+00.9336,+01.539,+01.173,-09.805,+00.071996,+00.289694,-00.579551*6C"
1710358275.902794,-6.738,4.382,0.919,0.1626,0.1973,0.9333,1.641,1.77,-9.365,0.202241,-0.092383,-0.088409,"$VNYMR,-006.738,+004.382,+000.919,+00.1626,+00.1973,+00.9333,+01.641,+01.770,-09.365,+00.202241,-00.092383,-00.088409*6E"
1710358275.927962,-6.641,3.931,1.264,0.1689,0.1983,0.9349,-0.122,-2.188,-10.796,0.237456,-0.421913,0.062267,"$VNYMR,-006.641,+003.931,+001.264,+00.1689,+00.1983,+00.9349,-00.122,-02.188,-10.796,+00.237456,-00.421913,+00.062267*67"
1710358275.953943,-6.869,3.224,1.624,0.1712,0.2072,0.9209,-1.337,-2.334,-13.169,0.276908,-0.526109,-0.27307,"$VNYMR,-006.869,+003.224,+001.624,+00.1712,+00.2072,+00.9209,-01.337,-02.334,-13.169,+00.276908,-00.526109,-00.273070*6F"
1710358275.9778888,-7.266,2.794,2.01,0.1754,0.2071,0.93,-1.727,-1.477,-14.179,0.201898,-0.096346,-0.240546,"$VNYMR,-007.266,+002.794,+002.010,+00.1754,+00.2071,+00.9300,-01.727,-01.477,-14.179,+00.201898,-00.096346,-00.240546*60"
1710358276.0035212,-7.59,3.186,2.027,0.1703,0.2116,0.9309,-1.442,-2.648,-11.2,-0.082309,0.495209,-0.275121,"$VNYMR,-007.590,+003.186,+002.027,+00.1703,+00.2116,+00.9309,-01.442,-02.648,-11.200,-00.082309,+00.495209,-00.275121*64"
1710358276.0288503,-8.19,4.052,1.786,0.1618,0.2073,0.928,-0.61,-2.224,-7.563,-0.110178,0.570489,-0.525695,"$VNYMR,-008.190,+004.052,+001.786,+00.1618,+00.2073,+00.9280,-00.610,-02.224,-07.563,-00.110178,+00.570489,-00.525695*69"
1710358276.0548234,-8.93,4.614,1.765,0.1557,0.2119,0.9315,0.303,-0.604,-6.37,0.114361,0.219972,-0.464172,"$VNYMR,-008.930,+004.614,+001.765,+00.1557,+00.2119,+00.9315,+00.303,-00.604,-06.370,+00.114361,+00.219972,-00.464172*69"
1710358276.082279,-9.514,4.65,2.012,0.1548,0.2175,0.9288,0.372,-0.91,-7.321,0.251491,-0.127,-0.394193,"$VNYMR,-009.514,+004.650,+002.012,+00.1548,+00.2175,+00.9288,+00.372,-00.910,-07.321,+00.251491,-00.127000,-00.394193*67"
1710358276.1075287,-10.112,4.275,2.379,0.156,0.223,0.925,0.38,-1.056,-10.294,0.292175,-0.301658,-0.425275,"$VNYMR,-010.112,+004.275,+002.379,+00.1560,+00.2230,+00.9250,+00.380,-01.056,-10.294,+00.292175,-00.301658,-00.425275*68"
1710358276.141155,-10.802,4.019,2.78,0.1582,0.2296,0.9263,0.562,-0.811,-11.402,0.317329,-0.107451,-0.48226,"$VNYMR,-010.802,+004.019,+002.780,+00.1582,+00.2296,+00.9263,+00.562,-00.811,-11.402,+00.317329,-00.107451,-00.482260*63"
1710358276.1600955,-11.404,4.037,3.21,0.1551,0.2319,0.921,0.655,-0.81,-10.218,0.312412,0.041792,-0.391341,"$VNYMR,-011.404,+004.037,+003.210,+00.1551,+00.2319,+00.9210,+00.655,-00.810,-10.218,+00.312412,+00.041792,-00.391341*6B"
1710358276.2129202,-11.963,4.243,3.489,0.1553,0.2363,0.9273,0.915,-1.384,-8.712,0.18322,0.145144,-0.418629,"$VNYMR,-011.963,+004.243,+003.489,+00.1553,+00.2363,+00.9273,+00.915,-01.384,-08.712,+00.183220,+00.145144,-00.418629*68"
1710358276.2568512,-12.645,4.459,3.588,0.15,0.2375,0.9207,0.803,-1.503,-6.961,0.026097,0.077495,-0.533842,"$VNYMR,-012.645,+004.459,+003.588,+00.1500,+00.2375,+00.9207,+00.803,-01.503,-06.961,+00.026097,+00.077495,-00.533842*66"
1710358276.3004453,-13.47,4.457,3.475,0.146,0.2432,0.9191,1.328,-0.616,-6.938,-0.036043,-0.120254,-0.554988,"$VNYMR,-013.470,+004.457,+003.475,+00.1460,+00.2432,+00.9191,+01.328,-00.616,-06.938,-00.036043,-00.120254,-00.554988*6E"
1710358276.343854,-14.289,4.219,3.37,0.1482,0.2465,0.923,1.515,-0.726,-8.608,-0.018652,-0.20556,-0.557291,"$VNYMR,-014.289,+004.219,+003.370,+00.1482,+00.2465,+00.9230,+01.515,-00.726,-08.608,-00.018652,-00.205560,-00.557291*67"
1710358276.3868148,-15.011,4.004,3.373,0.1471,0.2454,0.9242,1.666,0.022,-9.288,0.056987,-0.140009,-0.413875,"$VNYMR,-015.011,+004.004,+003.373,+00.1471,+00.2454,+00.9242,+01.666,+00.022,-09.288,+00.056987,-00.140009,-00.413875*6E"
1710358276.4254854,-15.511,3.961,3.348,0.1472,0.2465,0.9229,1.329,-1.354,-9.151,-0.080674,-0.010013,-0.350344,"$VNYMR,-015.511,+003.961,+003.348,+00.1472,+00.2465,+00.9229,+01.329,-01.354,-09.151,-00.080674,-00.010013,-00.350344*66"
1710358276.4396822,-16.033,4.007,3.053,0.1451,0.2476,0.9177,1.958,0.125,-9.341,-0.165617,-0.002111,-0.313502,"$VNYMR,-016.033,+004.007,+003.053,+00.1451,+00.2476,+00.9177,+01.958,+00.125,-09.341,-00.165617,-00.002111,-00.313502*6C"
1710358276.4674501,-16.323,3.986,2.837,0.1429,0.2454,0.9164,2.218,-0.144,-9.56,-0.143584,-0.028203,-0.155863,"$VNYMR,-016.323,+003.986,+002.837,+00.1429,+00.2454,+00.9164,+02.218,-00.144,-09.560,-00.143584,-00.028203,-00.155863*68"
1710358276.4957438,-16.46,4.081,2.605,0.143,0.2466,0.9252,2.203,-1.032,-10.198,-0.175086,0.145796,-0.079547,"$VNYMR,-016.460,+004.081,+002.605,+00.1430,+00.2466,+00.9252,+02.203,-01.032,-10.198,-00.175086,+00.145796,-00.079547*62"
1710358276.520048,-16.636,4.35,2.21,0.1408,0.2399,0.924,1.856,-1.33,-8.978,-0.341295,0.181531,-0.207081,"$VNYMR,-016.636,+004.350,+002.210,+00.1408,+00.2399,+00.9240,+01.856,-01.330,-08.978,-00.341295,+00.181531,-00.207081*62"
1710358276.5473664,-16.651,4.301,1.826,0.1397,0.2366,0.9303,1.258,-1.745,-10.999,-0.243929,0.031137,0.012337,"$VNYMR,-016.651,+004.301,+001.826,+00.1397,+00.2366,+00.9303,+01.258,-01.745,-10.999,-00.243929,+00.031137,+00.012337*61"
1710358276.5732417,-16.705,4.489,1.45,0.1375,0.2344,0.9277,0.909,-3.322,-10.767,-0.243854,0.044086,-0.073475,"$VNYMR,-016.705,+004.489,+001.450,+00.1375,+00.2344,+00.9277,+00.909,-03.322,-10.767,-00.243854,+00.044086,-00.073475*61"
1710358276.5989456,-17.09,4.486,1.018,0.1375,0.2333,0.9315,0.903,-2.549,-10.574,-0.311123,-0.040161,-0.382401,"$VNYMR,-017.090,+004.486,+001.018,+00.1375,+00.2333,+00.9315,+00.903,-02.549,-10.574,-00.311123,-00.040161,-00.382401*62"
1710358276.623988,-17.64,4.21,0.58,0.1374,0.2289,0.929,1.569,-0.315,-11.449,-0.227933,-0.317335,-0.351848,"$VNYMR,-017.640,+004.210,+000.580,+00.1374,+00.2289,+00.9290,+01.569,-00.315,-11.449,-00.227933,-00.317335,-00.351848*6A"
1710358276.6478562,-18.119,3.727,0.298,0.1384,0.2289,0.9316,1.861,1.009,-13.966,-0.13642,-0.31474,-0.307431,"$VNYMR,-018.119,+003.727,+000.298,+00.1384,+00.2289,+00.9316,+01.861,+01.009,-13.966,-00.136420,-00.314740,-00.307431*60"
1710358276.6756084,-18.397,3.576,0.115,0.1394,0.2277,0.9279,1.293,2.833,-15.904,-0.124435,0.127467,-0.064672,"$VNYMR,-018.397,+003.576,+000.115,+00.1394,+00.2277,+00.9279,+01.293,+02.833,-15.904,-00.124435,+00.127467,-00.064672*6D"
1710358276.7019572,-18.273,4.145,-0.092,0.1383,0.2222,0.9304,-0.373,1.138,-14.075,-0.15033,0.506962,0.150737,"$VNYMR,-018.273,+004.145,-000.092,+00.1383,+00.2222,+00.9304,-00.373,+01.138,-14.075,-00.150330,+00.506962,+00.150737*69"
1710358276.7526112,-18.03,4.808,-0.151,0.1331,0.2234,0.9302,-2.054,-0.087,-11.93,-0.009413,0.430733,0.164053,"$VNYMR,-018.030,+004.808,-000.151,+00.1331,+00.2234,+00.9302,-02.054,-00.087,-11.930,-00.009413,+00.430733,+00.164053*66"
1710358276.7889738,-17.839,5.511,-0.33,0.1279,0.2235,0.9362,-2.133,0.337,-10.047,-0.190179,0.519956,0.111919,"$VNYMR,-017.839,+005.511,-000.330,+00.1279,+00.2235,+00.9362,-02.133,+00.337,-10.047,-00.190179,+00.519956,+00.111919*6F"
1710358276.804266,-17.666,6.236,-0.449,0.1206,0.2225,0.9346,-1.394,-0.421,-7.963,-0.097137,0.510248,0.083544,"$VNYMR,-017.666,+006.236,-000.449,+00.1206,+00.2225,+00.9346,-01.394,-00.421,-07.963,-00.097137,+00.510248,+00.083544*60"
1710358276.834951,-17.736,7.004,-0.664,0.1154,0.2204,0.9445,0.023,0.409,-5.252,-0.161685,0.488419,-0.124681,"$VNYMR,-017.736,+007.004,-000.664,+00.1154,+00.2204,+00.9445,+00.023,+00.409,-05.252,-00.161685,+00.488419,-00.124681*63"
1710358276.884288,-17.854,7.225,-0.81,0.1101,0.2183,0.9418,0.968,2.739,-4.281,-0.005854,-0.103997,0.029396,"$VNYMR,-017.854,+007.225,-000.810,+00.1101,+00.2183,+00.9418,+00.968,+02.739,-04.281,-00.005854,-00.103997,+00.029396*68"
1710358276.9271886,-17.456,6.528,-0.63,0.1174,0.2204,0.9396,0.428,1.577,-6.626,0.158066,-0.689556,0.396268,"$VNYMR,-017.456,+006.528,-000.630,+00.1174,+00.2204,+00.9396,+00.428,+01.577,-06.626,+00.158066,-00.689556,+00.396268*62"
1710358276.9706464,-16.836,5.336,-0.291,0.1299,0.219,0.9389,-0.445,-0.805,-10.397,0.191854,-0.847653,0.400779,"$VNYMR,-016.836,+005.336,-000.291,+00.1299,+00.2190,+00.9389,-00.445,-00.805,-10.397,+00.191854,-00.847653,+00.400779*6D"
1710358277.0139198,-16.502,4.419,-0.055,0.1363,0.2278,0.9277,-0.545,-1.625,-12.52,0.097795,-0.444014,0.081235,"$VNYMR,-016.502,+004.419,-000.055,+00.1363,+00.2278,+00.9277,-00.545,-01.625,-12.520,+00.097795,-00.444014,+00.081235*6C"
1710358277.0583866,-16.603,4.15,-0.025,0.1423,0.2188,0.932,0.249,-0.391,-12.008,-0.028452,-0.027609,-0.105844,"$VNYMR,-016.603,+004.150,-000.025,+00.1423,+00.2188,+00.9320,+00.249,-00.391,-12.008,-00.028452,-00.027609,-00.105844*62"
1710358277.1013129,-16.758,4.4,-0.208,0.1424,0.2199,0.9294,1.182,0.116,-9.88,-0.150502,0.255723,-0.10462,"$VNYMR,-016.758,+004.400,-000.208,+00.1424,+00.2199,+00.9294,+01.182,+00.116,-09.880,-00.150502,+00.255723,-00.104620*6A"
1710358277.1429348,-16.918,4.709,-0.362,0.1362,0.2234,0.9354,1.581,0.614,-8.33,-0.063619,0.17387,-0.08639,"$VNYMR,-016.918,+004.709,-000.362,+00.1362,+00.2234,+00.9354,+01.581,+00.614,-08.330,-00.063619,+00.173870,-00.086390*6B"
1710358277.1854782,-16.97,4.884,-0.401,0.1361,0.22,0.9304,1.384,0.352,-7.201,0.01032,0.066355,-0.008362,"$VNYMR,-016.970,+004.884,-000.401,+00.1361,+00.2200,+00.9304,+01.384,+00.352,-07.201,+00.010320,+00.066355,-00.008362*6B"
1710358277.2282786,-16.96,4.866,-0.381,0.1342,0.2267,0.9238,1.202,0.207,-7.425,0.02301,-0.05434,0.007304,"$VNYMR,-016.960,+004.866,-000.381,+00.1342,+00.2267,+00.9238,+01.202,+00.207,-07.425,+00.023010,-00.054340,+00.007304*63"
1710358277.269666,-17.008,4.69,-0.276,0.1362,0.2245,0.9328,1.187,0.915,-7.99,0.115377,-0.197684,-0.055883,"$VNYMR,-017.008,+004.690,-000.276,+00.1362,+00.2245,+00.9328,+01.187,+00.915,-07.990,+00.115377,-00.197684,-00.055883*6C"
1710358277.3034925,-16.995,4.418,-0.079,0.1414,0.2222,0.9306,1.268,0.821,-8.705,0.136577,-0.168959,0.033242,"$VNYMR,-016.995,+004.418,-000.079,+00.1414,+00.2222,+00.9306,+01.268,+00.821,-08.705,+00.136577,-00.168959,+00.033242*64"
1710358277.3194182,-16.952,4.21,0.082,0.1415,0.2255,0.9293,1.294,0.098,-9.253,0.090587,-0.114077,0.029548,"$VNYMR,-016.952,+004.210,+000.082,+00.1415,+00.2255,+00.9293,+01.294,+00.098,-09.253,+00.090587,-00.114077,+00.029548*6B"
1710358277.3438332,-16.969,4.078,0.213,0.1403,0.2222,0.9305,1.052,-0.997,-9.12,0.104367,-0.093141,-0.073004,"$VNYMR,-016.969,+004.078,+000.213,+00.1403,+00.2222,+00.9305,+01.052,-00.997,-09.120,+00.104367,-00.093141,-00.073004*69"
1710358277.370877,-17.194,3.945,0.344,0.1427,0.2332,0.9229,1.15,-0.521,-9.701,0.135651,-0.085581,-0.187857,"$VNYMR,-017.194,+003.945,+000.344,+00.1427,+00.2332,+00.9229,+01.150,-00.521,-09.701,+00.135651,-00.085581,-00.187857*66"
1710358277.4261787,-17.494,3.777,0.598,0.1426,0.2288,0.9293,0.942,-0.282,-10.49,0.202874,-0.138371,-0.211233,"$VNYMR,-017.494,+003.777,+000.598,+00.1426,+00.2288,+00.9293,+00.942,-00.282,-10.490,+00.202874,-00.138371,-00.211233*68"
1710358277.4683867,-17.795,3.614,0.868,0.1448,0.2343,0.928,0.601,-1.139,-11.537,0.20017,-0.099559,-0.250665,"$VNYMR,-017.795,+003.614,+000.868,+00.1448,+00.2343,+00.9280,+00.601,-01.139,-11.537,+00.200170,-00.099559,-00.250665*6C"
1710358277.4947789,-18.352,3.537,1.104,0.1427,0.2343,0.9241,0.957,-0.531,-11.838,0.195451,-0.049637,-0.463798,"$VNYMR,-018.352,+003.537,+001.104,+00.1427,+00.2343,+00.9241,+00.957,-00.531,-11.838,+00.195451,-00.049637,-00.463798*61"
1710358277.5093296,-19.038,3.473,1.398,0.143,0.2443,0.9253,1.249,-0.181,-11.36,0.223141,-0.062685,-0.486989,"$VNYMR,-019.038,+003.473,+001.398,+00.1430,+00.2443,+00.9253,+01.249,-00.181,-11.360,+00.223141,-00.062685,-00.486989*68"
1710358277.5359118,-19.744,3.32,1.616,0.1399,0.2477,0.9225,1.242,0.001,-11.193,0.179911,-0.17961,-0.475224,"$VNYMR,-019.744,+003.320,+001.616,+00.1399,+00.2477,+00.9225,+01.242,+00.001,-11.193,+00.179911,-00.179610,-00.475224*68"
1710358277.5609634,-20.317,3.045,1.812,0.1422,0.2555,0.9187,0.837,-0.378,-11.767,0.126337,-0.197866,-0.331223,"$VNYMR,-020.317,+003.045,+001.812,+00.1422,+00.2555,+00.9187,+00.837,-00.378,-11.767,+00.126337,-00.197866,-00.331223*63"
1710358277.5863473,-20.87,2.741,1.899,0.1412,0.2577,0.9199,-0.334,-1.467,-11.802,0.055692,-0.257349,-0.424657,"$VNYMR,-020.870,+002.741,+001.899,+00.1412,+00.2577,+00.9199,-00.334,-01.467,-11.802,+00.055692,-00.257349,-00.424657*6C"
1710358277.6121476,-21.554,2.393,1.918,0.1441,0.251,0.9227,-1.225,-1.03,-12.611,-0.003922,-0.261899,-0.473065,"$VNYMR,-021.554,+002.393,+001.918,+00.1441,+00.2510,+00.9227,-01.225,-01.030,-12.611,-00.003922,-00.261899,-00.473065*6A"
1710358277.6382778,-22.194,2.285,1.862,0.1432,0.2532,0.9213,-1.651,-1.844,-12.513,-0.060955,0.007152,-0.399088,"$VNYMR,-022.194,+002.285,+001.862,+00.1432,+00.2532,+00.9213,-01.651,-01.844,-12.513,-00.060955,+00.007152,-00.399088*6A"
1710358277.6635053,-22.981,2.947,1.454,0.1369,0.2555,0.9172,-1.141,-1.287,-9.622,-0.333087,0.638049,-0.616984,"$VNYMR,-022.981,+002.947,+001.454,+00.1369,+00.2555,+00.9172,-01.141,-01.287,-09.622,-00.333087,+00.638049,-00.616984*6B"
1710358277.6893706,-23.794,4.011,0.95,0.1244,0.2513,0.9268,-0.427,-0.973,-6.476,-0.287016,0.720183,-0.555988,"$VNYMR,-023.794,+004.011,+000.950,+00.1244,+00.2513,+00.9268,-00.427,-00.973,-06.476,-00.287016,+00.720183,-00.555988*68"
1710358277.7158444,-24.512,4.795,0.648,0.1152,0.2582,0.9224,-0.011,-1.913,-5.497,-0.074586,0.386825,-0.48447,"$VNYMR,-024.512,+004.795,+000.648,+00.1152,+00.2582,+00.9224,-00.011,-01.913,-05.497,-00.074586,+00.386825,-00.484470*68"
1710358277.7691634,-25.261,4.859,0.834,0.1108,0.2505,0.9248,0.143,-1.886,-6.621,0.315251,-0.233269,-0.579059,"$VNYMR,-025.261,+004.859,+000.834,+00.1108,+00.2505,+00.9248,+00.143,-01.886,-06.621,+00.315251,-00.233269,-00.579059*63"
1710358277.8189147,-26.132,4.119,1.415,0.1141,0.2582,0.9249,0.396,-0.528,-9.826,0.514193,-0.666741,-0.580588,"$VNYMR,-026.132,+004.119,+001.415,+00.1141,+00.2582,+00.9249,+00.396,-00.528,-09.826,+00.514193,-00.666741,-00.580588*6F"
1710358277.8353665,-26.957,3.194,2.088,0.1207,0.2703,0.9199,0.637,0.452,-13.323,0.476935,-0.576352,-0.510744,"$VNYMR,-026.957,+003.194,+002.088,+00.1207,+00.2703,+00.9199,+00.637,+00.452,-13.323,+00.476935,-00.576352,-00.510744*6E"
1710358277.8634348,-27.575,2.824,2.522,0.1218,0.2747,0.9161,0.993,1.064,-13.151,0.20647,-0.0517,-0.337105,"$VNYMR,-027.575,+002.824,+002.522,+00.1218,+00.2747,+00.9161,+00.993,+01.064,-13.151,+00.206470,-00.051700,-00.337105*64"
1710358277.9149015,-28.008,3.079,2.539,0.1198,0.2781,0.916,0.837,0.213,-10.088,-0.05698,0.282523,-0.283728,"$VNYMR,-028.008,+003.079,+002.539,+00.1198,+00.2781,+00.9160,+00.837,+00.213,-10.088,-00.056980,+00.282523,-00.283728*68"
1710358277.9565618,-28.39,3.538,2.363,0.1124,0.2738,0.922,0.461,-1.127,-7.357,-0.140905,0.288718,-0.303559,"$VNYMR,-028.390,+003.538,+002.363,+00.1124,+00.2738,+00.9220,+00.461,-01.127,-07.357,-00.140905,+00.288718,-00.303559*6C"
1710358277.9991386,-28.935,3.835,2.103,0.1085,0.286,0.9153,0.328,-1.176,-6.63,-0.16412,0.126113,-0.433659,"$VNYMR,-028.935,+003.835,+002.103,+00.1085,+00.2860,+00.9153,+00.328,-01.176,-06.630,-00.164120,+00.126113,-00.433659*6D"
1710358278.0414164,-29.571,3.874,1.862,0.1063,0.2794,0.9203,0.598,-1.102,-7.14,-0.111737,-0.00014,-0.462425,"$VNYMR,-029.571,+003.874,+001.862,+00.1063,+00.2794,+00.9203,+00.598,-01.102,-07.140,-00.111737,-00.000140,-00.462425*67"
1710358278.0838692,-30.201,3.837,1.711,0.1042,0.2761,0.9203,0.95,0.161,-8.429,-0.045941,-0.005625,-0.395857,"$VNYMR,-030.201,+003.837,+001.711,+00.1042,+00.2761,+00.9203,+00.950,+00.161,-08.429,-00.045941,-00.005625,-00.395857*6D"
1710358278.1259325,-30.489,3.925,1.729,0.102,0.2739,0.9215,1.515,0.422,-9.012,0.063143,0.073243,-0.104815,"$VNYMR,-030.489,+003.925,+001.729,+00.1020,+00.2739,+00.9215,+01.515,+00.422,-09.012,+00.063143,+00.073243,-00.104815*68"
1710358278.1683764,-30.555,4.006,1.797,0.1011,0.2806,0.9201,1.737,0.131,-9.124,0.005244,0.046963,-0.027896,"$VNYMR,-030.555,+004.006,+001.797,+00.1011,+00.2806,+00.9201,+01.737,+00.131,-09.124,+00.005244,+00.046963,-00.027896*67"
1710358278.2107067,-30.618,4.021,1.691,0.1021,0.2751,0.924,1.63,0.01,-8.967,-0.109207,-0.039382,-0.057444,"$VNYMR,-030.618,+004.021,+001.691,+00.1021,+00.2751,+00.9240,+01.630,+00.010,-08.967,-00.109207,-00.039382,-00.057444*6D"
1710358278.2548075,-30.583,4.11,1.567,0.0999,0.2707,0.9252,1.27,-0.522,-10.828,-0.076695,0.18416,0.04614,"$VNYMR,-030.583,+004.110,+001.567,+00.0999,+00.2707,+00.9252,+01.270,-00.522,-10.828,-00.076695,+00.184160,+00.046140*61"
1710358278.2974205,-30.483,4.376,1.49,0.099,0.2762,0.9276,0.934,-0.777,-11.259,-0.023913,0.076433,0.100692,"$VNYMR,-030.483,+004.376,+001.490,+00.0990,+00.2762,+00.9276,+00.934,-00.777,-11.259,-00.023913,+00.076433,+00.100692*67"
1710358278.3397815,-30.354,4.416,1.574,0.1002,0.284,0.9187,0.676,-2.193,-13.492,0.072468,0.088465,0.027601,"$VNYMR,-030.354,+004.416,+001.574,+00.1002,+00.2840,+00.9187,+00.676,-02.193,-13.492,+00.072468,+00.088465,+00.027601*6A"
1710358278.3813486,-30.538,4.694,1.633,0.0969,0.2752,0.9225,1.195,-1.183,-13.034,0.051481,0.240985,-0.212026,"$VNYMR,-030.538,+004.694,+001.633,+00.0969,+00.2752,+00.9225,+01.195,-01.183,-13.034,+00.051481,+00.240985,-00.212026*6F"
1710358278.4233966,-30.769,5.004,1.74,0.0919,0.2841,0.9183,1.781,1.054,-12.453,0.124306,0.204218,-0.07533,"$VNYMR,-030.769,+005.004,+001.740,+00.0919,+00.2841,+00.9183,+01.781,+01.054,-12.453,+00.124306,+00.204218,-00.075330*6E"
1710358278.4516048,-30.66,5.247,1.916,0.0907,0.2786,0.9196,2.031,1.769,-12.676,0.09274,0.168063,0.203432,"$VNYMR,-030.660,+005.247,+001.916,+00.0907,+00.2786,+00.9196,+02.031,+01.769,-12.676,+00.092740,+00.168063,+00.203432*6F"
1710358278.4664369,-30.12,5.53,1.948,0.0896,0.2753,0.9221,0.832,1.518,-12.834,-0.087103,0.239642,0.490059,"$VNYMR,-030.120,+005.530,+001.948,+00.0896,+00.2753,+00.9221,+00.832,+01.518,-12.834,-00.087103,+00.239642,+00.490059*6F"
1710358278.49305,-29.17,5.837,1.901,0.0886,0.2786,0.9169,-0.917,-0.947,-12.434,-0.1227,0.266957,0.68324,"$VNYMR,-029.170,+005.837,+001.901,+00.0886,+00.2786,+00.9169,-00.917,-00.947,-12.434,-00.122700,+00.266957,+00.683240*6E"
1710358278.5177493,-28.372,6.349,1.621,0.0905,0.2686,0.9273,-1.524,-2.02,-10.848,-0.336725,0.427057,0.44706,"$VNYMR,-028.372,+006.349,+001.621,+00.0905,+00.2686,+00.9273,-01.524,-02.020,-10.848,-00.336725,+00.427057,+00.447060*62"
1710358278.5441217,-27.929,7.072,1.191,0.0852,0.2654,0.9335,-1.258,-1.65,-9.045,-0.331224,0.55353,0.217366,"$VNYMR,-027.929,+007.072,+001.191,+00.0852,+00.2654,+00.9335,-01.258,-01.650,-09.045,-00.331224,+00.553530,+00.217366*60"
1710358278.5697873,-27.78,7.844,0.796,0.0777,0.2566,0.932,-0.486,-0.613,-6.642,-0.231595,0.485632,0.021734,"$VNYMR,-027.780,+007.844,+000.796,+00.0777,+00.2566,+00.9320,-00.486,-00.613,-06.642,-00.231595,+00.485632,+00.021734*61"
1710358278.5955076,-27.792,8.279,0.486,0.0727,0.2645,0.9278,0.744,0.943,-4.772,-0.209358,0.150455,-0.020786,"$VNYMR,-027.792,+008.279,+000.486,+00.0727,+00.2645,+00.9278,+00.744,+00.943,-04.772,-00.209358,+00.150455,-00.020786*6B"
1710358278.620474,-27.692,8.031,0.294,0.0736,0.2578,0.9343,1.181,1.667,-4.582,-0.108083,-0.460527,0.132068,"$VNYMR,-027.692,+008.031,+000.294,+00.0736,+00.2578,+00.9343,+01.181,+01.667,-04.582,-00.108083,-00.460527,+00.132068*6E"
1710358278.6467872,-27.379,7.012,0.201,0.0891,0.2542,0.9364,0.58,1.29,-7.753,-0.06878,-0.862307,0.261496,"$VNYMR,-027.379,+007.012,+000.201,+00.0891,+00.2542,+00.9364,+00.580,+01.290,-07.753,-00.068780,-00.862307,+00.261496*6E"
1710358278.6733365,-26.843,5.675,0.27,0.1015,0.2495,0.9307,-0.303,-0.036,-11.151,0.034782,-0.921915,0.40239,"$VNYMR,-026.843,+005.675,+000.270,+00.1015,+00.2495,+00.9307,-00.303,-00.036,-11.151,+00.034782,-00.921915,+00.402390*64"
1710358278.6978233,-26.415,4.659,0.253,0.1089,0.2549,0.9297,-0.313,-1.1,-12.442,-0.09564,-0.532366,0.198012,"$VNYMR,-026.415,+004.659,+000.253,+00.1089,+00.2549,+00.9297,-00.313,-01.100,-12.442,-00.095640,-00.532366,+00.198012*65"
1710358278.724444,-26.265,4.301,0.078,0.1131,0.2582,0.9223,0.569,-0.219,-10.881,-0.163029,-0.086785,0.058104,"$VNYMR,-026.265,+004.301,+000.078,+00.1131,+00.2582,+00.9223,+00.569,-00.219,-10.881,-00.163029,-00.086785,+00.058104*62"
1710358278.7496831,-26.196,4.386,-0.219,0.1129,0.2482,0.93,1.492,0.414,-8.635,-0.213464,0.095669,0.058114,"$VNYMR,-026.196,+004.386,-000.219,+00.1129,+00.2482,+00.9300,+01.492,+00.414,-08.635,-00.213464,+00.095669,+00.058114*67"
1710358278.7753525,-26.024,4.49,-0.488,0.1118,0.2482,0.9313,1.579,0.217,-7.885,-0.182776,0.05089,0.159669,"$VNYMR,-026.024,+004.490,-000.488,+00.1118,+00.2482,+00.9313,+01.579,+00.217,-07.885,-00.182776,+00.050890,+00.159669*6D"
1710358278.8009906,-25.776,4.442,-0.716,0.1149,0.2448,0.934,1.303,0.687,-8.519,-0.133075,-0.068215,0.224788,"$VNYMR,-025.776,+004.442,-000.716,+00.1149,+00.2448,+00.9340,+01.303,+00.687,-08.519,-00.133075,-00.068215,+00.224788*63"
1710358278.826866,-25.474,4.354,-0.805,0.1168,0.2393,0.9342,0.816,-0.648,-9.182,-0.039614,-0.044455,0.16284,"$VNYMR,-025.474,+004.354,-000.805,+00.1168,+00.2393,+00.9342,+00.816,-00.648,-09.182,-00.039614,-00.044455,+00.162840*6F"
1710358278.8524358,-25.368,4.319,-0.759,0.1179,0.2426,0.9291,0.833,-0.454,-9.598,0.049714,0.021772,0.015235,"$VNYMR,-025.368,+004.319,-000.759,+00.1179,+00.2426,+00.9291,+00.833,-00.454,-09.598,+00.049714,+00.021772,+00.015235*61"
1710358278.8803551,-25.417,4.363,-0.614,0.1158,0.2404,0.9303,1.085,0.626,-9.772,0.14161,0.053166,-0.037561,"$VNYMR,-025.417,+004.363,-000.614,+00.1158,+00.2404,+00.9303,+01.085,+00.626,-09.772,+00.141610,+00.053166,-00.037561*6B"
1710358278.9032512,-25.454,4.457,-0.311,0.117,0.2459,0.9328,1.254,0.617,-10.006,0.212893,0.12133,-0.016881,"$VNYMR,-025.454,+004.457,-000.311,+00.1170,+00.2459,+00.9328,+01.254,+00.617,-10.006,+00.212893,+00.121330,-00.016881*62"
1710358278.9289293,-25.564,4.742,-0.181,0.1128,0.2449,0.9314,1.497,0.556,-9.181,0.01123,0.214834,-0.116,"$VNYMR,-025.564,+004.742,-000.181,+00.1128,+00.2449,+00.9314,+01.497,+00.556,-09.181,+00.011230,+00.214834,-00.116000*6E"
1710358278.9547098,-25.7,5.029,-0.098,0.1118,0.2482,0.93,1.586,0.577,-9.394,0.125164,0.164249,-0.074806,"$VNYMR,-025.700,+005.029,-000.098,+00.1118,+00.2482,+00.9300,+01.586,+00.577,-09.394,+00.125164,+00.164249,-00.074806*62"
1710358278.9807425,-25.835,5.196,0.145,0.1078,0.2539,0.9284,0.593,-0.938,-10.242,0.21046,0.096432,-0.131978,"$VNYMR,-025.835,+005.196,+000.145,+00.1078,+00.2539,+00.9284,+00.593,-00.938,-10.242,+00.210460,+00.096432,-00.131978*6E"
1710358279.0062933,-26.239,5.287,0.497,0.1057,0.2517,0.9296,-0.005,-1.884,-11.268,0.278225,0.051965,-0.409545,"$VNYMR,-026.239,+005.287,+000.497,+00.1057,+00.2517,+00.9296,-00.005,-01.884,-11.268,+00.278225,+00.051965,-00.409545*63"
1710358279.0338364,-27.086,5.459,0.8,0.1005,0.254,0.9293,0.805,-0.509,-12.173,0.238146,0.170943,-0.688298,"$VNYMR,-027.086,+005.459,+000.800,+00.1005,+00.2540,+00.9293,+00.805,-00.509,-12.173,+00.238146,+00.170943,-00.688298*66"
1710358279.0584624,-28.046,5.795,1.026,0.0966,0.2618,0.9315,1.967,1.603,-11.244,0.223903,0.203702,-0.601451,"$VNYMR,-028.046,+005.795,+001.026,+00.0966,+00.2618,+00.9315,+01.967,+01.603,-11.244,+00.223903,+00.203702,-00.601451*64"
1710358279.0840085,-28.725,5.925,1.286,0.0936,0.2697,0.9287,2.165,1.063,-10.352,0.2595,-0.02692,-0.395192,"$VNYMR,-028.725,+005.925,+001.286,+00.0936,+00.2697,+00.9287,+02.165,+01.063,-10.352,+00.259500,-00.026920,-00.395192*60"
1710358279.1092553,-29.195,5.63,1.595,0.0926,0.2719,0.9249,0.896,-0.592,-10.12,0.205661,-0.343463,-0.329808,"$VNYMR,-029.195,+005.630,+001.595,+00.0926,+00.2719,+00.9249,+00.896,-00.592,-10.120,+00.205661,-00.343463,-00.329808*60"
1710358279.1351445,-29.677,4.956,1.828,0.0979,0.274,0.9264,-0.248,-0.376,-11.64,0.178518,-0.544867,-0.287783,"$VNYMR,-029.677,+004.956,+001.828,+00.0979,+00.2740,+00.9264,-00.248,-00.376,-11.640,+00.178518,-00.544867,-00.287783*60"
1710358279.1605914,-30.043,4.381,1.996,0.1002,0.284,0.9174,-1.295,-1.754,-13.014,0.098053,-0.294818,-0.247069,"$VNYMR,-030.043,+004.381,+001.996,+00.1002,+00.2840,+00.9174,-01.295,-01.754,-13.014,+00.098053,-00.294818,-00.247069*6D"
1710358279.1864927,-30.546,4.434,1.982,0.0979,0.2751,0.9213,-1.252,-1.654,-11.41,-0.007189,0.196898,-0.434047,"$VNYMR,-030.546,+004.434,+001.982,+00.0979,+00.2751,+00.9213,-01.252,-01.654,-11.410,-00.007189,+00.196898,-00.434047*67"
1710358279.2114584,-31.221,4.979,1.841,0.0928,0.2808,0.9197,-0.371,-0.96,-9.0,-0.106736,0.478171,-0.481838,"$VNYMR,-031.221,+004.979,+001.841,+00.0928,+00.2808,+00.9197,-00.371,-00.960,-09.000,-00.106736,+00.478171,-00.481838*61"
1710358279.2389765,-31.876,5.649,1.586,0.0834,0.2776,0.9256,0.308,-1.201,-6.876,-0.104717,0.389402,-0.428481,"$VNYMR,-031.876,+005.649,+001.586,+00.0834,+00.2776,+00.9256,+00.308,-01.201,-06.876,-00.104717,+00.389402,-00.428481*61"
1710358279.2641902,-32.404,5.896,1.611,0.0792,0.2766,0.9279,0.608,-1.248,-6.203,0.18965,-0.027184,-0.327862,"$VNYMR,-032.404,+005.896,+001.611,+00.0792,+00.2766,+00.9279,+00.608,-01.248,-06.203,+00.189650,-00.027184,-00.327862*67"
1710358279.2897089,-32.852,5.332,2.03,0.0825,0.2854,0.9203,0.28,-1.947,-8.534,0.39955,-0.60573,-0.291224,"$VNYMR,-032.852,+005.332,+002.030,+00.0825,+00.2854,+00.9203,+00.280,-01.947,-08.534,+00.399550,-00.605730,-00.291224*6D"
1710358279.315612,-33.46,4.431,2.619,0.0909,0.2875,0.9207,-0.037,-2.845,-11.659,0.436631,-0.604719,-0.509825,"$VNYMR,-033.460,+004.431,+002.619,+00.0909,+00.2875,+00.9207,-00.037,-02.845,-11.659,+00.436631,-00.604719,-00.509825*68"
1710358279.341209,-34.473,3.857,3.098,0.091,0.293,0.9181,0.652,0.554,-13.417,0.369429,-0.273551,-0.699375,"$VNYMR,-034.473,+003.857,+003.098,+00.0910,+00.2930,+00.9181,+00.652,+00.554,-13.417,+00.369429,-00.273551,-00.699375*65"
1710358279.3680959,-35.209,3.898,3.451,0.086,0.2998,0.9139,1.294,1.357,-11.097,0.181214,0.155215,-0.397611,"$VNYMR,-035.209,+003.898,+003.451,+00.0860,+00.2998,+00.9139,+01.294,+01.357,-11.097,+00.181214,+00.155215,-00.397611*69"
1710358279.394686,-35.662,4.308,3.466,0.083,0.3054,0.9112,1.506,0.196,-7.785,-0.036064,0.277356,-0.312156,"$VNYMR,-035.662,+004.308,+003.466,+00.0830,+00.3054,+00.9112,+01.506,+00.196,-07.785,-00.036064,+00.277356,-00.312156*66"
1710358279.4202216,-36.104,4.608,3.345,0.0791,0.3143,0.9134,1.35,-0.873,-5.883,-0.05844,0.085567,-0.338427,"$VNYMR,-036.104,+004.608,+003.345,+00.0791,+00.3143,+00.9134,+01.350,-00.873,-05.883,-00.058440,+00.085567,-00.338427*66"
1710358279.4454792,-36.607,4.477,3.243,0.0798,0.301,0.9174,1.238,-1.055,-6.413,-0.030534,-0.261648,-0.318043,"$VNYMR,-036.607,+004.477,+003.243,+00.0798,+00.3010,+00.9174,+01.238,-01.055,-06.413,-00.030534,-00.261648,-00.318043*69"
1710358279.4718354,-37.118,4.119,3.182,0.0787,0.3021,0.9123,0.916,-1.698,-8.251,-0.011341,-0.212346,-0.344105,"$VNYMR,-037.118,+004.119,+003.182,+00.0787,+00.3021,+00.9123,+00.916,-01.698,-08.251,-00.011341,-00.212346,-00.344105*61"
1710358279.5274446,-37.592,3.822,3.165,0.0799,0.3054,0.9123,1.301,-1.43,-9.45,0.033758,-0.219622,-0.286639,"$VNYMR,-037.592,+003.822,+003.165,+00.0799,+00.3054,+00.9123,+01.301,-01.430,-09.450,+00.033758,-00.219622,-00.286639*6F"
1710358279.5535154,-38.002,3.619,3.195,0.0808,0.301,0.9162,1.178,-1.483,-9.733,0.007407,-0.117857,-0.272474,"$VNYMR,-038.002,+003.619,+003.195,+00.0808,+00.3010,+00.9162,+01.178,-01.483,-09.733,+00.007407,-00.117857,-00.272474*6A"
1710358279.5699053,-38.425,3.569,3.113,0.0788,0.3043,0.9135,1.371,-1.546,-9.319,-0.061846,-0.02073,-0.316994,"$VNYMR,-038.425,+003.569,+003.113,+00.0788,+00.3043,+00.9135,+01.371,-01.546,-09.319,-00.061846,-00.020730,-00.316994*69"
1710358279.5969222,-38.946,3.598,2.863,0.0757,0.3033,0.9146,1.687,-0.63,-9.191,-0.23578,0.043295,-0.364144,"$VNYMR,-038.946,+003.598,+002.863,+00.0757,+00.3033,+00.9146,+01.687,-00.630,-09.191,-00.235780,+00.043295,-00.364144*63"
1710358279.624163,-39.418,3.714,2.386,0.0747,0.3055,0.9146,1.781,0.205,-9.229,-0.351553,0.046303,-0.295428,"$VNYMR,-039.418,+003.714,+002.386,+00.0747,+00.3055,+00.9146,+01.781,+00.205,-09.229,-00.351553,+00.046303,-00.295428*64"
1710358279.6812878,-39.739,3.687,1.822,0.0744,0.2944,0.9173,1.413,-0.544,-10.268,-0.357374,-0.073549,-0.181814,"$VNYMR,-039.739,+003.687,+001.822,+00.0744,+00.2944,+00.9173,+01.413,-00.544,-10.268,-00.357374,-00.073549,-00.181814*6D"
1710358279.701942,-39.989,3.534,1.333,0.0723,0.2923,0.9235,0.966,-1.771,-10.701,-0.3477,-0.145038,-0.177334,"$VNYMR,-039.989,+003.534,+001.333,+00.0723,+00.2923,+00.9235,+00.966,-01.771,-10.701,-00.347700,-00.145038,-00.177334*69"
1710358279.7228422,-40.321,3.191,0.831,0.0774,0.2877,0.9238,0.577,-2.147,-11.305,-0.342768,-0.291999,-0.307089,"$VNYMR,-040.321,+003.191,+000.831,+00.0774,+00.2877,+00.9238,+00.577,-02.147,-11.305,-00.342768,-00.291999,-00.307089*6D"
1710358279.748758,-40.934,2.716,0.36,0.0783,0.2833,0.9227,0.964,-1.18,-12.721,-0.269747,-0.319386,-0.476269,"$VNYMR,-040.934,+002.716,+000.360,+00.0783,+00.2833,+00.9227,+00.964,-01.180,-12.721,-00.269747,-00.319386,-00.476269*68"
1710358279.7766712,-41.688,2.251,-0.05,0.0784,0.2877,0.9239,1.726,1.052,-13.63,-0.274647,-0.346104,-0.520794,"$VNYMR,-041.688,+002.251,-000.050,+00.0784,+00.2877,+00.9239,+01.726,+01.052,-13.630,-00.274647,-00.346104,-00.520794*62"
1710358279.799951,-42.332,1.811,-0.498,0.0814,0.2799,0.9267,2.431,2.556,-15.062,-0.315735,-0.220367,-0.37495,"$VNYMR,-042.332,+001.811,-000.498,+00.0814,+00.2799,+00.9267,+02.431,+02.556,-15.062,-00.315735,-00.220367,-00.374950*6C"
1710358279.8276613,-42.429,1.784,-1.086,0.0802,0.2766,0.9242,1.22,2.851,-14.466,-0.527641,0.135042,0.138449,"$VNYMR,-042.429,+001.784,-001.086,+00.0802,+00.2766,+00.9242,+01.220,+02.851,-14.466,-00.527641,+00.135042,+00.138449*6F"
1710358279.8518946,-41.936,2.214,-1.926,0.0781,0.2755,0.9266,-0.864,-0.263,-12.888,-0.539064,0.360241,0.438621,"$VNYMR,-041.936,+002.214,-001.926,+00.0781,+00.2755,+00.9266,-00.864,-00.263,-12.888,-00.539064,+00.360241,+00.438621*6D"
1710358279.8793054,-41.392,2.839,-2.477,0.0747,0.2611,0.9317,-2.513,-2.995,-10.866,-0.352748,0.489996,0.306292,"$VNYMR,-041.392,+002.839,-002.477,+00.0747,+00.2611,+00.9317,-02.513,-02.995,-10.866,-00.352748,+00.489996,+00.306292*62"
1710358279.9046547,-41.309,3.626,-3.012,0.0694,0.2579,0.9353,-2.846,-3.04,-8.566,-0.400801,0.584825,-0.095863,"$VNYMR,-041.309,+003.626,-003.012,+00.0694,+00.2579,+00.9353,-02.846,-03.040,-08.566,-00.400801,+00.584825,-00.095863*60"
1710358279.9336865,-41.721,4.443,-3.484,0.059,0.2581,0.9361,-2.114,-1.604,-5.899,-0.276293,0.525832,-0.348703,"$VNYMR,-041.721,+004.443,-003.484,+00.0590,+00.2581,+00.9361,-02.114,-01.604,-05.899,-00.276293,+00.525832,-00.348703*69"
1710358279.9881551,-42.382,4.917,-3.887,0.0547,0.2504,0.941,-0.388,0.03,-4.859,-0.16357,0.242633,-0.482249,"$VNYMR,-042.382,+004.917,-003.887,+00.0547,+00.2504,+00.9410,-00.388,+00.030,-04.859,-00.163570,+00.242633,-00.482249*62"
1710358280.0349426,-43.05,4.718,-3.827,0.0516,0.2538,0.9396,1.04,2.983,-5.451,0.228613,-0.367841,-0.388332,"$VNYMR,-043.050,+004.718,-003.827,+00.0516,+00.2538,+00.9396,+01.040,+02.983,-05.451,+00.228613,-00.367841,-00.388332*67"
1710358280.0822356,-43.184,3.811,-3.305,0.057,0.2625,0.9296,0.88,3.327,-9.528,0.422902,-0.738767,0.036765,"$VNYMR,-043.184,+003.811,-003.305,+00.0570,+00.2625,+00.9296,+00.880,+03.327,-09.528,+00.422902,-00.738767,+00.036765*68"
1710358280.130777,-42.92,2.861,-2.795,0.0686,0.2657,0.9339,0.188,2.006,-13.001,0.295803,-0.548929,0.2009,"$VNYMR,-042.920,+002.861,-002.795,+00.0686,+00.2657,+00.9339,+00.188,+02.006,-13.001,+00.295803,-00.548929,+00.200900*6A"
1710358280.1757622,-42.594,2.526,-2.475,0.0726,0.2634,0.9291,-0.204,0.468,-12.582,0.126129,-0.038414,0.187743,"$VNYMR,-042.594,+002.526,-002.475,+00.0726,+00.2634,+00.9291,-00.204,+00.468,-12.582,+00.126129,-00.038414,+00.187743*69"
1710358280.2183743,-42.435,2.78,-2.44,0.0717,0.2645,0.9353,0.288,-0.124,-9.994,-0.008722,0.270063,0.071457,"$VNYMR,-042.435,+002.780,-002.440,+00.0717,+00.2645,+00.9353,+00.288,-00.124,-09.994,-00.008722,+00.270063,+00.071457*6C"
1710358280.261172,-42.439,3.157,-2.52,0.0674,0.2624,0.9339,1.034,0.033,-7.809,-0.066705,0.255499,-0.015674,"$VNYMR,-042.439,+003.157,-002.520,+00.0674,+00.2624,+00.9339,+01.034,+00.033,-07.809,-00.066705,+00.255499,-00.015674*67"
1710358280.3038957,-42.448,3.355,-2.572,0.0664,0.2646,0.9338,1.357,0.644,-6.943,-0.035352,0.054922,0.037123,"$VNYMR,-042.448,+003.355,-002.572,+00.0664,+00.2646,+00.9338,+01.357,+00.644,-06.943,-00.035352,+00.054922,+00.037123*61"
1710358280.3472412,-42.333,3.381,-2.578,0.0674,0.2624,0.9326,0.977,0.171,-7.59,0.006955,-0.017056,0.091532,"$VNYMR,-042.333,+003.381,-002.578,+00.0674,+00.2624,+00.9326,+00.977,+00.171,-07.590,+00.006955,-00.017056,+00.091532*60"
1710358280.391336,-42.172,3.36,-2.466,0.0685,0.2635,0.9365,0.65,-0.154,-8.448,0.11755,-0.020139,0.105015,"$VNYMR,-042.172,+003.360,-002.466,+00.0685,+00.2635,+00.9365,+00.650,-00.154,-08.448,+00.117550,-00.020139,+00.105015*67"
1710358280.435237,-42.079,3.341,-2.261,0.0686,0.269,0.9275,0.754,-0.4,-9.079,0.129958,0.002516,0.023471,"$VNYMR,-042.079,+003.341,-002.261,+00.0686,+00.2690,+00.9275,+00.754,-00.400,-09.079,+00.129958,+00.002516,+00.023471*60"
1710358280.4763095,-42.211,3.379,-2.14,0.0665,0.2657,0.9338,0.99,0.772,-8.585,0.025155,0.027022,-0.153848,"$VNYMR,-042.211,+003.379,-002.140,+00.0665,+00.2657,+00.9338,+00.990,+00.772,-08.585,+00.025155,+00.027022,-00.153848*63"
1710358280.5092766,-42.318,3.366,-2.122,0.0676,0.269,0.9325,1.436,1.562,-8.932,0.041095,-0.058329,-0.023773,"$VNYMR,-042.318,+003.366,-002.122,+00.0676,+00.2690,+00.9325,+01.436,+01.562,-08.932,+00.041095,-00.058329,-00.023773*6E"
1710358280.5270908,-42.243,3.308,-2.061,0.0697,0.2701,0.9301,1.395,0.556,-10.132,0.044652,-0.013232,0.083129,"$VNYMR,-042.243,+003.308,-002.061,+00.0697,+00.2701,+00.9301,+01.395,+00.556,-10.132,+00.044652,-00.013232,+00.083129*6F"
1710358280.5504708,-42.184,3.329,-1.949,0.0697,0.2712,0.925,0.668,-0.27,-10.506,0.07384,0.019426,-0.010455,"$VNYMR,-042.184,+003.329,-001.949,+00.0697,+00.2712,+00.9250,+00.668,-00.270,-10.506,+00.073840,+00.019426,-00.010455*67"
1710358280.6056652,-42.293,3.402,-1.796,0.0676,0.269,0.9338,0.262,-0.514,-10.884,0.141824,0.047088,-0.13319,"$VNYMR,-042.293,+003.402,-001.796,+00.0676,+00.2690,+00.9338,+00.262,-00.514,-10.884,+00.141824,+00.047088,-00.133190*62"
1710358280.649229,-42.581,3.512,-1.532,0.0676,0.2701,0.9325,0.74,-0.194,-11.847,0.236893,0.116662,-0.227098,"$VNYMR,-042.581,+003.512,-001.532,+00.0676,+00.2701,+00.9325,+00.740,-00.194,-11.847,+00.236893,+00.116662,-00.227098*6F"
1710358280.6928346,-42.988,3.746,-1.13,0.0605,0.2769,0.932,1.323,-0.23,-11.056,0.306394,0.182406,-0.32015,"$VNYMR,-042.988,+003.746,-001.130,+00.0605,+00.2769,+00.9320,+01.323,-00.230,-11.056,+00.306394,+00.182406,-00.320150*65"
1710358280.7362633,-43.488,4.003,-0.729,0.0576,0.2903,0.919,1.724,-0.26,-10.39,0.315802,0.187129,-0.313932,"$VNYMR,-043.488,+004.003,-000.729,+00.0576,+00.2903,+00.9190,+01.724,-00.260,-10.390,+00.315802,+00.187129,-00.313932*62"
1710358280.7795913,-44.067,4.034,-0.293,0.0576,0.287,0.9216,1.85,-0.802,-9.883,0.372869,-0.148818,-0.43392,"$VNYMR,-044.067,+004.034,-000.293,+00.0576,+00.2870,+00.9216,+01.850,-00.802,-09.883,+00.372869,-00.148818,-00.433920*6F"
1710358280.822557,-44.621,3.522,0.276,0.0577,0.2892,0.9292,0.935,-0.039,-11.149,0.425488,-0.538151,-0.29852,"$VNYMR,-044.621,+003.522,+000.276,+00.0577,+00.2892,+00.9292,+00.935,-00.039,-11.149,+00.425488,-00.538151,-00.298520*6D"
1710358280.8657897,-44.937,2.671,0.747,0.0651,0.2957,0.9218,-1.818,-1.829,-14.363,0.277603,-0.684888,-0.181083,"$VNYMR,-044.937,+002.671,+000.747,+00.0651,+00.2957,+00.9218,-01.818,-01.829,-14.363,+00.277603,-00.684888,-00.181083*6B"
1710358280.9086254,-45.357,2.382,0.925,0.0631,0.2991,0.9166,-2.797,-2.807,-15.393,0.033699,0.157769,-0.370513,"$VNYMR,-045.357,+002.382,+000.925,+00.0631,+00.2991,+00.9166,-02.797,-02.807,-15.393,+00.033699,+00.157769,-00.370513*67"
1710358280.951013,-46.119,3.28,0.745,0.0558,0.297,0.9226,-2.277,-3.194,-10.157,-0.169056,0.841915,-0.660852,"$VNYMR,-046.119,+003.280,+000.745,+00.0558,+00.2970,+00.9226,-02.277,-03.194,-10.157,-00.169056,+00.841915,-00.660852*6E"
1710358280.993867,-47.245,4.581,0.353,0.0412,0.2961,0.9219,-1.106,-1.771,-6.269,-0.220676,0.893846,-0.848172,"$VNYMR,-047.245,+004.581,+000.353,+00.0412,+00.2961,+00.9219,-01.106,-01.771,-06.269,-00.220676,+00.893846,-00.848172*69"
1710358281.0378928,-48.298,5.502,0.1,0.0267,0.2986,0.9275,-0.127,-1.284,-5.209,-0.001202,0.42321,-0.696272,"$VNYMR,-048.298,+005.502,+000.100,+00.0267,+00.2986,+00.9275,-00.127,-01.284,-05.209,-00.001202,+00.423210,-00.696272*61"
1710358281.0804658,-49.305,5.483,0.342,0.0224,0.2954,0.9248,0.371,-0.823,-6.515,0.391444,-0.367,-0.716409,"$VNYMR,-049.305,+005.483,+000.342,+00.0224,+00.2954,+00.9248,+00.371,-00.823,-06.515,+00.391444,-00.367000,-00.716409*6E"
1710358281.1130044,-50.257,4.621,1.012,0.0267,0.3031,0.9198,0.876,1.178,-10.5,0.570584,-0.701302,-0.569485,"$VNYMR,-050.257,+004.621,+001.012,+00.0267,+00.3031,+00.9198,+00.876,+01.178,-10.500,+00.570584,-00.701302,-00.569485*6E"
1710358281.1282246,-50.86,3.764,1.701,0.0291,0.3141,0.9134,1.019,1.382,-12.905,0.41163,-0.470502,-0.288894,"$VNYMR,-050.860,+003.764,+001.701,+00.0291,+00.3141,+00.9134,+01.019,+01.382,-12.905,+00.411630,-00.470502,-00.288894*6A"
1710358281.1802711,-51.181,3.514,2.05,0.0312,0.3174,0.9122,0.84,0.298,-12.155,0.182769,0.004391,-0.179822,"$VNYMR,-051.181,+003.514,+002.050,+00.0312,+00.3174,+00.9122,+00.840,+00.298,-12.155,+00.182769,+00.004391,-00.179822*6F"
1710358281.202129,-51.45,3.741,2.138,0.0312,0.3152,0.916,0.429,-0.937,-9.439,0.016851,0.220316,-0.205708,"$VNYMR,-051.450,+003.741,+002.138,+00.0312,+00.3152,+00.9160,+00.429,-00.937,-09.439,+00.016851,+00.220316,-00.205708*6B"
1710358281.2212527,-51.841,4.137,2.056,0.0231,0.3231,0.9168,0.119,-2.5,-7.62,-0.087656,0.287762,-0.3582,"$VNYMR,-051.841,+004.137,+002.056,+00.0231,+00.3231,+00.9168,+00.119,-02.500,-07.620,-00.087656,+00.287762,-00.358200*61"
1710358281.2474532,-52.557,4.483,1.807,0.0187,0.3132,0.918,0.156,-2.903,-6.459,-0.159656,0.15684,-0.61005,"$VNYMR,-052.557,+004.483,+001.807,+00.0187,+00.3132,+00.9180,+00.156,-02.903,-06.459,-00.159656,+00.156840,-00.610050*60"
1710358281.273635,-53.616,4.572,1.527,0.0135,0.3177,0.9151,0.502,-2.233,-6.291,-0.119852,-0.065275,-0.818996,"$VNYMR,-053.616,+004.572,+001.527,+00.0135,+00.3177,+00.9151,+00.502,-02.233,-06.291,-00.119852,-00.065275,-00.818996*6C"
1710358281.3038573,-76.254,4.06,-1.409,-0.0714,0.2904,0.9253,1.357,0.36,-7.693,-0.211713,-0.170964,-0.255421,"$VNYMR,-076.254,+004.060,-001.409,-00.0714,+00.2904,+00.9253,+01.357,+00.360,-07.693,-00.211713,-00.170964,-00.255421*65"
1710358281.3303902,-76.459,3.689,-1.626,-0.0695,0.287,0.9229,1.321,-0.208,-8.64,-0.135618,-0.302506,-0.13324,"$VNYMR,-076.459,+003.689,-001.626,-00.0695,+00.2870,+00.9229,+01.321,-00.208,-08.640,-00.135618,-00.302506,-00.133240*6B"
1710358281.3555343,-76.579,3.329,-1.815,-0.0694,0.2881,0.9241,1.356,-0.639,-9.943,-0.14225,-0.205486,-0.102584,"$VNYMR,-076.579,+003.329,-001.815,-00.0694,+00.2881,+00.9241,+01.356,-00.639,-09.943,-00.142250,-00.205486,-00.102584*69"
1710358281.3809772,-76.842,3.164,-2.067,-0.0683,0.2925,0.9203,1.396,-0.598,-10.03,-0.184495,-0.044135,-0.232824,"$VNYMR,-076.842,+003.164,-002.067,-00.0683,+00.2925,+00.9203,+01.396,-00.598,-10.030,-00.184495,-00.044135,-00.232824*6F"
1710358281.4332366,-77.101,3.131,-2.417,-0.0705,0.2859,0.9241,1.882,1.723,-10.276,-0.232149,0.006756,-0.049534,"$VNYMR,-077.101,+003.131,-002.417,-00.0705,+00.2859,+00.9241,+01.882,+01.723,-10.276,-00.232149,+00.006756,-00.049534*60"
1710358281.4743724,-76.995,3.17,-2.788,-0.0676,0.277,0.9295,1.372,0.15,-10.007,-0.254886,-0.068904,0.154165,"$VNYMR,-076.995,+003.170,-002.788,-00.0676,+00.2770,+00.9295,+01.372,+00.150,-10.007,-00.254886,-00.068904,+00.154165*69"
1710358281.495785,-76.944,3.245,-3.057,-0.0656,0.2714,0.9309,0.622,-2.046,-11.074,-0.20219,0.142337,-0.103038,"$VNYMR,-076.944,+003.245,-003.057,-00.0656,+00.2714,+00.9309,+00.622,-02.046,-11.074,-00.202190,+00.142337,-00.103038*63"
1710358281.515457,-77.237,3.336,-3.534,-0.0698,0.2726,0.9332,0.678,-0.227,-10.233,-0.392009,-0.063808,-0.180276,"$VNYMR,-077.237,+003.336,-003.534,-00.0698,+00.2726,+00.9332,+00.678,-00.227,-10.233,-00.392009,-00.063808,-00.180276*62"
1710358281.5415428,-77.403,3.098,-3.978,-0.0709,0.2704,0.9319,0.709,-0.416,-10.947,-0.254456,-0.237352,-0.116018,"$VNYMR,-077.403,+003.098,-003.978,-00.0709,+00.2704,+00.9319,+00.709,-00.416,-10.947,-00.254456,-00.237352,-00.116018*6C"
1710358281.5681012,-77.691,2.537,-4.181,-0.07,0.2615,0.9372,0.869,0.356,-12.274,-0.030579,-0.48156,-0.299944,"$VNYMR,-077.691,+002.537,-004.181,-00.0700,+00.2615,+00.9372,+00.869,+00.356,-12.274,-00.030579,-00.481560,-00.299944*69"
1710358281.5934575,-77.969,1.741,-4.002,-0.0626,0.268,0.9375,1.229,3.261,-15.862,0.174346,-0.379897,-0.124092,"$VNYMR,-077.969,+001.741,-004.002,-00.0626,+00.2680,+00.9375,+01.229,+03.261,-15.862,+00.174346,-00.379897,-00.124092*69"
1710358281.646858,-77.79,1.6,-3.933,-0.0553,0.2657,0.9366,0.05,2.464,-15.16,-0.088671,0.057893,0.248785,"$VNYMR,-077.790,+001.600,-003.933,-00.0553,+00.2657,+00.9366,+00.050,+02.464,-15.160,-00.088671,+00.057893,+00.248785*62"
1710358281.6898587,-77.244,1.978,-4.16,-0.0606,0.2646,0.9363,-1.632,-0.091,-12.828,-0.117957,0.33236,0.480066,"$VNYMR,-077.244,+001.978,-004.160,-00.0606,+00.2646,+00.9363,-01.632,-00.091,-12.828,-00.117957,+00.332360,+00.480066*6F"
1710358281.7357123,-76.736,2.591,-4.269,-0.0617,0.2624,0.9338,-2.868,-2.643,-10.068,-0.104734,0.43459,0.257423,"$VNYMR,-076.736,+002.591,-004.269,-00.0617,+00.2624,+00.9338,-02.868,-02.643,-10.068,-00.104734,+00.434590,+00.257423*69"
1710358281.7777905,-76.78,3.303,-4.472,-0.07,0.2637,0.9384,-2.172,-1.583,-7.91,-0.145307,0.527047,-0.11365,"$VNYMR,-076.780,+003.303,-004.472,-00.0700,+00.2637,+00.9384,-02.172,-01.583,-07.910,-00.145307,+00.527047,-00.113650*66"
1710358281.8203986,-77.22,4.014,-4.783,-0.0764,0.2572,0.9382,-0.361,0.349,-5.485,-0.212774,0.468513,-0.331163,"$VNYMR,-077.220,+004.014,-004.783,-00.0764,+00.2572,+00.9382,-00.361,+00.349,-05.485,-00.212774,+00.468513,-00.331163*6D"
1710358281.8641856,-77.629,4.263,-4.941,-0.0817,0.255,0.9342,1.354,2.57,-4.789,0.010841,-0.048272,-0.183705,"$VNYMR,-077.629,+004.263,-004.941,-00.0817,+00.2550,+00.9342,+01.354,+02.570,-04.789,+00.010841,-00.048272,-00.183705*66"
1710358281.9069965,-77.644,3.97,-4.868,-0.0784,0.2616,0.9317,1.177,3.586,-8.074,0.041175,-0.2607,0.127651,"$VNYMR,-077.644,+003.970,-004.868,-00.0784,+00.2616,+00.9317,+01.177,+03.586,-08.074,+00.041175,-00.260700,+00.127651*65"
1710358281.931976,-77.011,3.479,-4.693,-0.0732,0.2582,0.9333,-0.145,2.059,-10.885,0.127557,-0.39835,0.533908,"$VNYMR,-077.011,+003.479,-004.693,-00.0732,+00.2582,+00.9333,-00.145,+02.059,-10.885,+00.127557,-00.398350,+00.533908*67"
1710358281.949248,-76.293,3.13,-4.489,-0.0659,0.2603,0.9361,-1.166,-0.578,-12.321,0.107952,-0.157788,0.385647,"$VNYMR,-076.293,+003.130,-004.489,-00.0659,+00.2603,+00.9361,-01.166,-00.578,-12.321,+00.107952,-00.157788,+00.385647*6F"
1710358281.974477,-76.031,3.126,-4.31,-0.0627,0.2625,0.9401,-0.646,-1.081,-10.525,0.097076,0.041973,0.061688,"$VNYMR,-076.031,+003.126,-004.310,-00.0627,+00.2625,+00.9401,-00.646,-01.081,-10.525,+00.097076,+00.041973,+00.061688*68"
1710358282.0003152,-76.084,3.299,-4.289,-0.0658,0.2658,0.9323,0.254,-0.136,-8.887,-0.032475,0.205654,-0.090863,"$VNYMR,-076.084,+003.299,-004.289,-00.0658,+00.2658,+00.9323,+00.254,-00.136,-08.887,-00.032475,+00.205654,-00.090863*61"
1710358282.026101,-76.223,3.532,-4.334,-0.0679,0.2614,0.9373,0.892,-0.07,-7.378,0.012566,0.114668,-0.067075,"$VNYMR,-076.223,+003.532,-004.334,-00.0679,+00.2614,+00.9373,+00.892,-00.070,-07.378,+00.012566,+00.114668,-00.067075*6A"
1710358282.0520933,-76.496,3.531,-4.237,-0.0679,0.2648,0.9334,1.342,0.527,-7.544,0.103767,-0.053405,-0.231571,"$VNYMR,-076.496,+003.531,-004.237,-00.0679,+00.2648,+00.9334,+01.342,+00.527,-07.544,+00.103767,-00.053405,-00.231571*69"
1710358282.0800807,-76.741,3.309,-4.016,-0.0688,0.267,0.9359,1.469,1.781,-8.247,0.192339,-0.217993,-0.108864,"$VNYMR,-076.741,+003.309,-004.016,-00.0688,+00.2670,+00.9359,+01.469,+01.781,-08.247,+00.192339,-00.217993,-00.108864*6F"
1710358282.104313,-76.711,3.095,-3.714,-0.0667,0.2681,0.9372,1.249,1.045,-9.182,0.215297,-0.091837,0.060021,"$VNYMR,-076.711,+003.095,-003.714,-00.0667,+00.2681,+00.9372,+01.249,+01.045,-09.182,+00.215297,-00.091837,+00.060021*62"
1710358282.1304107,-76.665,3.071,-3.481,-0.0677,0.2725,0.9321,1.187,0.89,-8.47,0.107448,-0.002075,0.002583,"$VNYMR,-076.665,+003.071,-003.481,-00.0677,+00.2725,+00.9321,+01.187,+00.890,-08.470,+00.107448,-00.002075,+00.002583*6D"
1710358282.1547027,-76.658,3.054,-3.322,-0.0635,0.2714,0.9348,0.933,-0.046,-8.404,0.106237,-0.031113,-0.043306,"$VNYMR,-076.658,+003.054,-003.322,-00.0635,+00.2714,+00.9348,+00.933,-00.046,-08.404,+00.106237,-00.031113,-00.043306*67"
1710358282.2084095,-76.775,2.913,-3.161,-0.0634,0.2813,0.922,0.852,0.158,-9.151,0.140644,-0.135878,-0.116588,"$VNYMR,-076.775,+002.913,-003.161,-00.0634,+00.2813,+00.9220,+00.852,+00.158,-09.151,+00.140644,-00.135878,-00.116588*69"
1710358282.2520669,-77.006,2.676,-2.869,-0.0645,0.2736,0.9322,0.944,0.639,-9.881,0.236291,-0.18122,-0.203652,"$VNYMR,-077.006,+002.676,-002.869,-00.0645,+00.2736,+00.9322,+00.944,+00.639,-09.881,+00.236291,-00.181220,-00.203652*6D"
1710358282.2951066,-77.181,2.478,-2.543,-0.0623,0.278,0.931,0.561,0.499,-10.781,0.258755,-0.113394,-0.092728,"$VNYMR,-077.181,+002.478,-002.543,-00.0623,+00.2780,+00.9310,+00.561,+00.499,-10.781,+00.258755,-00.113394,-00.092728*64"
1710358282.3114328,-77.388,2.414,-2.115,-0.0632,0.288,0.9219,0.138,-0.71,-11.41,0.311619,0.008581,-0.217902,"$VNYMR,-077.388,+002.414,-002.115,-00.0632,+00.2880,+00.9219,+00.138,-00.710,-11.410,+00.311619,+00.008581,-00.217902*60"
1710358282.3376873,-77.85,2.485,-1.675,-0.0642,0.2858,0.9295,0.282,0.074,-10.894,0.331328,0.06226,-0.369891,"$VNYMR,-077.850,+002.485,-001.675,-00.0642,+00.2858,+00.9295,+00.282,+00.074,-10.894,+00.331328,+00.062260,-00.369891*60"
1710358282.3628025,-78.486,2.518,-1.237,-0.0694,0.2903,0.9241,1.132,0.802,-11.193,0.326498,0.019128,-0.476725,"$VNYMR,-078.486,+002.518,-001.237,-00.0694,+00.2903,+00.9241,+01.132,+00.802,-11.193,+00.326498,+00.019128,-00.476725*6D"
1710358282.3885462,-79.204,2.551,-0.827,-0.0692,0.2992,0.9189,1.921,0.608,-11.076,0.278267,0.042507,-0.531121,"$VNYMR,-079.204,+002.551,-000.827,-00.0692,+00.2992,+00.9189,+01.921,+00.608,-11.076,+00.278267,+00.042507,-00.531121*61"
1710358282.4142704,-80.043,2.557,-0.454,-0.0765,0.2971,0.9198,2.033,0.095,-11.825,0.310357,-0.023194,-0.612659,"$VNYMR,-080.043,+002.557,-000.454,-00.0765,+00.2971,+00.9198,+02.033,+00.095,-11.825,+00.310357,-00.023194,-00.612659*61"
1710358282.440528,-80.981,2.562,-0.001,-0.0775,0.2971,0.9185,0.898,-0.517,-13.004,0.369286,-0.011975,-0.69912,"$VNYMR,-080.981,+002.562,-000.001,-00.0775,+00.2971,+00.9185,+00.898,-00.517,-13.004,+00.369286,-00.011975,-00.699120*6D"
1710358282.465703,-81.82,2.654,0.381,-0.0816,0.3017,0.917,-0.321,-0.561,-14.276,0.200897,0.160736,-0.470846,"$VNYMR,-081.820,+002.654,+000.381,-00.0816,+00.3017,+00.9170,-00.321,-00.561,-14.276,+00.200897,+00.160736,-00.470846*6B"
1710358282.4915724,-82.386,3.2,0.39,-0.0869,0.3006,0.9142,-1.791,-2.423,-12.748,-0.05608,0.501636,-0.411575,"$VNYMR,-082.386,+003.200,+000.390,-00.0869,+00.3006,+00.9142,-01.791,-02.423,-12.748,-00.056080,+00.501636,-00.411575*66"
1710358282.5174212,-83.007,4.048,0.257,-0.0963,0.2986,0.9188,-1.809,-3.118,-10.47,-0.035271,0.646205,-0.471789,"$VNYMR,-083.007,+004.048,+000.257,-00.0963,+00.2986,+00.9188,-01.809,-03.118,-10.470,-00.035271,+00.646205,-00.471789*61"
1710358282.5425148,-83.793,4.979,0.215,-0.1098,0.2988,0.9143,-1.174,-2.223,-8.184,0.021087,0.646475,-0.542587,"$VNYMR,-083.793,+004.979,+000.215,-00.1098,+00.2988,+00.9143,-01.174,-02.223,-08.184,+00.021087,+00.646475,-00.542587*69"
1710358282.5686448,-84.515,5.831,0.207,-0.1204,0.2912,0.9089,-0.616,-2.319,-6.083,0.049383,0.484919,-0.50965,"$VNYMR,-084.515,+005.831,+000.207,-00.1204,+00.2912,+00.9089,-00.616,-02.319,-06.083,+00.049383,+00.484919,-00.509650*68"
1710358282.5943937,-85.424,6.015,0.322,-0.1255,0.2947,0.9111,0.222,-2.219,-6.336,0.259181,-0.162712,-0.731284,"$VNYMR,-085.424,+006.015,+000.322,-00.1255,+00.2947,+00.9111,+00.222,-02.219,-06.336,+00.259181,-00.162712,-00.731284*65"
1710358282.6198251,-86.665,5.303,0.839,-0.1234,0.2979,0.9023,0.589,0.93,-9.159,0.525433,-0.679387,-0.916214,"$VNYMR,-086.665,+005.303,+000.839,-00.1234,+00.2979,+00.9023,+00.589,+00.930,-09.159,+00.525433,-00.679387,-00.916214*6C"
1710358282.64596,-87.614,4.329,1.489,-0.1181,0.3023,0.9063,1.286,3.485,-12.799,0.455806,-0.587906,-0.420416,"$VNYMR,-087.614,+004.329,+001.489,-00.1181,+00.3023,+00.9063,+01.286,+03.485,-12.799,+00.455806,-00.587906,-00.420416*62"
1710358282.6735659,-87.923,4.102,1.72,-0.1191,0.3012,0.9088,0.754,0.583,-11.833,-0.013457,0.107807,-0.177387,"$VNYMR,-087.923,+004.102,+001.720,-00.1191,+00.3012,+00.9088,+00.754,+00.583,-11.833,-00.013457,+00.107807,-00.177387*6D"
1710358282.7165997,-88.238,4.479,1.586,-0.1244,0.3024,0.9021,0.562,-0.725,-8.017,-0.099947,0.280224,-0.252135,"$VNYMR,-088.238,+004.479,+001.586,-00.1244,+00.3024,+00.9021,+00.562,-00.725,-08.017,-00.099947,+00.280224,-00.252135*66"
1710358282.759932,-88.728,4.774,1.432,-0.1254,0.2991,0.9097,0.418,-1.405,-5.781,-0.071408,0.111927,-0.419008,"$VNYMR,-088.728,+004.774,+001.432,-00.1254,+00.2991,+00.9097,+00.418,-01.405,-05.781,-00.071408,+00.111927,-00.419008*64"
1710358282.8136601,-89.319,4.777,1.312,-0.1296,0.2992,0.9019,0.629,-0.934,-6.334,-0.01422,-0.080317,-0.398433,"$VNYMR,-089.319,+004.777,+001.312,-00.1296,+00.2992,+00.9019,+00.629,-00.934,-06.334,-00.014220,-00.080317,-00.398433*62"
1710358282.8597558,-89.823,4.609,1.19,-0.1287,0.2936,0.9109,0.711,-1.588,-6.839,-0.065746,-0.167252,-0.365686,"$VNYMR,-089.823,+004.609,+001.190,-00.1287,+00.2936,+00.9109,+00.711,-01.588,-06.839,-00.065746,-00.167252,-00.365686*6D"
1710358282.9030237,-90.365,4.286,1.073,-0.1308,0.2948,0.9096,0.787,-1.111,-8.191,-0.057203,-0.273351,-0.37677,"$VNYMR,-090.365,+004.286,+001.073,-00.1308,+00.2948,+00.9096,+00.787,-01.111,-08.191,-00.057203,-00.273351,-00.376770*6E"
1710358282.946763,-90.818,3.938,1.001,-0.1277,0.2914,0.9136,1.291,-0.294,-9.184,-0.010596,-0.244885,-0.260613,"$VNYMR,-090.818,+003.938,+001.001,-00.1277,+00.2914,+00.9136,+01.291,-00.294,-09.184,-00.010596,-00.244885,-00.260613*6D"
1710358282.9905157,-91.111,3.641,0.978,-0.1267,0.2925,0.9085,1.529,0.567,-9.756,-0.023058,-0.170283,-0.145895,"$VNYMR,-091.111,+003.641,+000.978,-00.1267,+00.2925,+00.9085,+01.529,+00.567,-09.756,-00.023058,-00.170283,-00.145895*6A"
1710358283.0348032,-91.256,3.417,0.879,-0.1266,0.2936,0.9098,1.465,-0.219,-9.356,-0.087081,-0.195957,-0.095857,"$VNYMR,-091.256,+003.417,+000.879,-00.1266,+00.2936,+00.9098,+01.465,-00.219,-09.356,-00.087081,-00.195957,-00.095857*60"
1710358283.0813694,-91.453,3.153,0.611,-0.1245,0.2957,0.9086,1.478,-0.142,-10.17,-0.244933,-0.128144,-0.140401,"$VNYMR,-091.453,+003.153,+000.611,-00.1245,+00.2957,+00.9086,+01.478,-00.142,-10.170,-00.244933,-00.128144,-00.140401*67"
1710358283.105524,-91.58,3.047,0.119,-0.1227,0.2813,0.9165,1.398,-0.264,-10.387,-0.404122,-0.071918,-0.054051,"$VNYMR,-091.580,+003.047,+000.119,-00.1227,+00.2813,+00.9165,+01.398,-00.264,-10.387,-00.404122,-00.071918,-00.054051*6D"
1710358283.1230485,-91.648,3.048,-0.523,-0.1239,0.2746,0.9191,1.185,-1.109,-11.582,-0.461525,0.035148,-0.076697,"$VNYMR,-091.648,+003.048,-000.523,-00.1239,+00.2746,+00.9191,+01.185,-01.109,-11.582,-00.461525,+00.035148,-00.076697*67"
1710358283.1493745,-91.83,3.081,-1.146,-0.1229,0.2746,0.9166,0.999,-1.306,-11.825,-0.418566,-0.007361,-0.158155,"$VNYMR,-091.830,+003.081,-001.146,-00.1229,+00.2746,+00.9166,+00.999,-01.306,-11.825,-00.418566,-00.007361,-00.158155*66"
1710358283.1760786,-92.113,2.923,-1.747,-0.123,0.2713,0.9204,1.089,-0.819,-11.924,-0.387613,-0.199822,-0.211791,"$VNYMR,-092.113,+002.923,-001.747,-00.1230,+00.2713,+00.9204,+01.089,-00.819,-11.924,-00.387613,-00.199822,-00.211791*62"
1710358283.2017179,-92.371,2.536,-2.17,-0.1222,0.2602,0.9257,1.294,0.492,-12.371,-0.229478,-0.326863,-0.169059,"$VNYMR,-092.371,+002.536,-002.170,-00.1222,+00.2602,+00.9257,+01.294,+00.492,-12.371,-00.229478,-00.326863,-00.169059*61"
1710358283.2282262,-92.516,2.011,-2.401,-0.1171,0.2557,0.9299,1.604,2.241,-14.19,-0.092611,-0.372453,-0.043647,"$VNYMR,-092.516,+002.011,-002.401,-00.1171,+00.2557,+00.9299,+01.604,+02.241,-14.190,-00.092611,-00.372453,-00.043647*6C"
1710358283.253003,-92.191,1.578,-2.341,-0.1137,0.2645,0.9324,1.204,2.855,-14.754,0.084496,-0.184866,0.387989,"$VNYMR,-092.191,+001.578,-002.341,-00.1137,+00.2645,+00.9324,+01.204,+02.855,-14.754,+00.084496,-00.184866,+00.387989*60"
1710358283.279188,-91.299,1.476,-2.411,-0.1118,0.2589,0.9275,-0.814,1.358,-12.697,-0.227204,-0.000652,0.758462,"$VNYMR,-091.299,+001.476,-002.411,-00.1118,+00.2589,+00.9275,-00.814,+01.358,-12.697,-00.227204,-00.000652,+00.758462*65"
1710358283.3041713,-90.129,1.808,-2.768,-0.1065,0.261,0.929,-2.626,-2.433,-10.872,-0.216945,0.276735,0.77233,"$VNYMR,-090.129,+001.808,-002.768,-00.1065,+00.2610,+00.9290,-02.626,-02.433,-10.872,-00.216945,+00.276735,+00.772330*63"
1710358283.3566349,-89.392,2.37,-2.909,-0.1107,0.26,0.9301,-3.475,-4.056,-8.786,-0.112374,0.432831,0.321066,"$VNYMR,-089.392,+002.370,-002.909,-00.1107,+00.2600,+00.9301,-03.475,-04.056,-08.786,-00.112374,+00.432831,+00.321066*63"
1710358283.399246,-89.354,3.162,-3.057,-0.1138,0.26,0.9274,-2.478,-2.039,-6.305,-0.072647,0.59728,-0.06819,"$VNYMR,-089.354,+003.162,-003.057,-00.1138,+00.2600,+00.9274,-02.478,-02.039,-06.305,-00.072647,+00.597280,-00.068190*6B"
1710358283.442231,-89.792,3.829,-3.2,-0.1242,0.2602,0.9282,-0.957,-1.185,-4.381,-0.101602,0.365869,-0.423507,"$VNYMR,-089.792,+003.829,-003.200,-00.1242,+00.2602,+00.9282,-00.957,-01.185,-04.381,-00.101602,+00.365869,-00.423507*6C"
1710358283.4852974,-90.576,3.832,-3.285,-0.1285,0.2581,0.9267,0.393,1.675,-5.16,0.066861,-0.235908,-0.551382,"$VNYMR,-090.576,+003.832,-003.285,-00.1285,+00.2581,+00.9267,+00.393,+01.675,-05.160,+00.066861,-00.235908,-00.551382*63"
1710358283.5324924,-91.013,3.008,-3.051,-0.1201,0.2579,0.9259,0.856,4.503,-9.098,0.240656,-0.689203,-0.119919,"$VNYMR,-091.013,+003.008,-003.051,-00.1201,+00.2579,+00.9259,+00.856,+04.503,-09.098,+00.240656,-00.689203,-00.119919*68"
1710358283.5507004,-90.721,2.028,-2.718,-0.1117,0.2633,0.9287,-0.072,2.257,-12.907,0.168689,-0.6037,0.280506,"$VNYMR,-090.721,+002.028,-002.718,-00.1117,+00.2633,+00.9287,-00.072,+02.257,-12.907,+00.168689,-00.603700,+00.280506*68"
1710358283.5760794,-90.366,1.646,-2.587,-0.1055,0.2588,0.9317,-0.645,-0.026,-13.29,0.042954,-0.056504,0.146098,"$VNYMR,-090.366,+001.646,-002.587,-00.1055,+00.2588,+00.9317,-00.645,-00.026,-13.290,+00.042954,-00.056504,+00.146098*61"
1710358283.6311264,-90.37,1.782,-2.587,-0.1054,0.2654,0.9316,-0.391,-0.676,-10.332,-0.026,0.170031,-0.080142,"$VNYMR,-090.370,+001.782,-002.587,-00.1054,+00.2654,+00.9316,-00.391,-00.676,-10.332,-00.026000,+00.170031,-00.080142*6F"
1710358283.677164,-90.626,2.066,-2.678,-0.1117,0.2622,0.9313,0.445,0.981,-8.406,-0.058024,0.192941,-0.16961,"$VNYMR,-090.626,+002.066,-002.678,-00.1117,+00.2622,+00.9313,+00.445,+00.981,-08.406,-00.058024,+00.192941,-00.169610*6D"
1710358283.7235248,-90.611,2.215,-2.698,-0.1126,0.2689,0.9197,0.983,1.228,-7.428,0.018732,0.046052,0.119356,"$VNYMR,-090.611,+002.215,-002.698,-00.1126,+00.2689,+00.9197,+00.983,+01.228,-07.428,+00.018732,+00.046052,+00.119356*66"
1710358283.7685475,-90.385,2.224,-2.555,-0.1128,0.26,0.9249,0.859,0.072,-7.899,0.138323,-0.005847,0.155701,"$VNYMR,-090.385,+002.224,-002.555,-00.1128,+00.2600,+00.9249,+00.859,+00.072,-07.899,+00.138323,-00.005847,+00.155701*69"
1710358283.8122687,-90.236,2.241,-2.354,-0.1106,0.2633,0.9275,0.782,-0.154,-8.378,0.115787,0.058822,0.047264,"$VNYMR,-090.236,+002.241,-002.354,-00.1106,+00.2633,+00.9275,+00.782,-00.154,-08.378,+00.115787,+00.058822,+00.047264*6A"
1710358283.8598726,-90.265,2.271,-2.165,-0.1096,0.2655,0.925,0.769,0.165,-8.114,0.120829,-0.010151,-0.056598,"$VNYMR,-090.265,+002.271,-002.165,-00.1096,+00.2655,+00.9250,+00.769,+00.165,-08.114,+00.120829,-00.010151,-00.056598*61"
1710358283.9077394,-90.326,2.275,-2.074,-0.1115,0.27,0.9274,1.144,1.152,-8.488,0.043287,0.014394,-0.020765,"$VNYMR,-090.326,+002.275,-002.074,-00.1115,+00.2700,+00.9274,+01.144,+01.152,-08.488,+00.043287,+00.014394,-00.020765*60"
1710358283.9567337,-90.326,2.352,-2.026,-0.1125,0.2755,0.9158,1.223,0.299,-9.503,0.013398,0.096259,-0.01564,"$VNYMR,-090.326,+002.352,-002.026,-00.1125,+00.2755,+00.9158,+01.223,+00.299,-09.503,+00.013398,+00.096259,-00.015640*69"
1710358284.0045779,-90.418,2.544,-1.953,-0.1126,0.2689,0.9286,1.432,1.339,-9.625,0.119703,0.120178,-0.049765,"$VNYMR,-090.418,+002.544,-001.953,-00.1126,+00.2689,+00.9286,+01.432,+01.339,-09.625,+00.119703,+00.120178,-00.049765*6C"
1710358284.0490077,-90.369,2.713,-1.759,-0.1146,0.27,0.926,1.039,0.262,-10.379,0.114952,0.144441,0.050932,"$VNYMR,-090.369,+002.713,-001.759,-00.1146,+00.2700,+00.9260,+01.039,+00.262,-10.379,+00.114952,+00.144441,+00.050932*6A"
1710358284.0910163,-90.381,2.967,-1.646,-0.1176,0.279,0.9219,0.216,-0.879,-10.258,0.070285,0.180076,-0.05424,"$VNYMR,-090.381,+002.967,-001.646,-00.1176,+00.2790,+00.9219,+00.216,-00.879,-10.258,+00.070285,+00.180076,-00.054240*66"
1710358284.1339254,-90.676,3.15,-1.545,-0.121,0.2679,0.9206,-0.382,-1.534,-10.819,0.105975,0.095497,-0.322767,"$VNYMR,-090.676,+003.150,-001.545,-00.1210,+00.2679,+00.9206,-00.382,-01.534,-10.819,+00.105975,+00.095497,-00.322767*66"
1710358284.1765509,-91.329,3.182,-1.317,-0.1199,0.2701,0.9219,0.351,0.697,-11.74,0.224886,-0.003318,-0.485828,"$VNYMR,-091.329,+003.182,-001.317,-00.1199,+00.2701,+00.9219,+00.351,+00.697,-11.740,+00.224886,-00.003318,-00.485828*69"
1710358284.2187772,-91.923,3.094,-1.055,-0.1261,0.2725,0.9215,1.313,1.223,-11.714,0.154894,-0.072764,-0.375794,"$VNYMR,-091.923,+003.094,-001.055,-00.1261,+00.2725,+00.9215,+01.313,+01.223,-11.714,+00.154894,-00.072764,-00.375794*66"
1710358284.2669566,-92.288,2.844,-0.874,-0.1209,0.2713,0.9244,1.475,1.192,-11.676,0.161369,-0.254117,-0.179547,"$VNYMR,-092.288,+002.844,-000.874,-00.1209,+00.2713,+00.9244,+01.475,+01.192,-11.676,+00.161369,-00.254117,-00.179547*6C"
1710358284.311115,-92.426,2.242,-0.606,-0.1156,0.2745,0.9233,0.264,-0.611,-12.264,0.188472,-0.48696,-0.079099,"$VNYMR,-092.426,+002.242,-000.606,-00.1156,+00.2745,+00.9233,+00.264,-00.611,-12.264,+00.188472,-00.486960,-00.079099*67"
1710358284.3543246,-92.608,1.437,-0.498,-0.1153,0.2867,0.9181,-1.264,-1.463,-13.462,0.021761,-0.532386,-0.181834,"$VNYMR,-092.608,+001.437,-000.498,-00.1153,+00.2867,+00.9181,-01.264,-01.463,-13.462,+00.021761,-00.532386,-00.181834*6D"
1710358284.3964815,-92.888,1.128,-0.571,-0.1093,0.2766,0.9185,-1.579,-1.874,-13.806,-0.085619,0.024191,-0.193998,"$VNYMR,-092.888,+001.128,-000.571,-00.1093,+00.2766,+00.9185,-01.579,-01.874,-13.806,-00.085619,+00.024191,-00.193998*6C"
1710358284.438283,-93.278,1.597,-0.795,-0.1156,0.2756,0.922,-1.477,-1.946,-10.764,-0.197847,0.50524,-0.31817,"$VNYMR,-093.278,+001.597,-000.795,-00.1156,+00.2756,+00.9220,-01.477,-01.946,-10.764,-00.197847,+00.505240,-00.318170*61"
1710358284.4828475,-93.819,2.512,-1.021,-0.122,0.2668,0.9218,-1.081,-2.862,-7.494,-0.084208,0.663404,-0.420257,"$VNYMR,-093.819,+002.512,-001.021,-00.1220,+00.2668,+00.9218,-01.081,-02.862,-07.494,-00.084208,+00.663404,-00.420257*60"
1710358284.5257645,-94.6,3.367,-1.078,-0.1355,0.2682,0.9186,-0.42,-2.119,-6.338,0.027655,0.521253,-0.581174,"$VNYMR,-094.600,+003.367,-001.078,-00.1355,+00.2682,+00.9186,-00.420,-02.119,-06.338,+00.027655,+00.521253,-00.581174*6A"
1710358284.569443,-95.441,3.716,-0.956,-0.1408,0.2649,0.9171,0.254,-0.928,-7.257,0.228549,0.021663,-0.5823,"$VNYMR,-095.441,+003.716,-000.956,-00.1408,+00.2649,+00.9171,+00.254,-00.928,-07.257,+00.228549,+00.021663,-00.582300*6B"
1710358284.611866,-96.25,3.355,-0.426,-0.1408,0.2661,0.9158,0.368,-1.178,-11.123,0.507516,-0.304403,-0.5926,"$VNYMR,-096.250,+003.355,-000.426,-00.1408,+00.2661,+00.9158,+00.368,-01.178,-11.123,+00.507516,-00.304403,-00.592600*61"
1710358284.6550891,-97.133,2.986,0.397,-0.1406,0.2749,0.9144,0.802,1.367,-13.555,0.592056,-0.122597,-0.599287,"$VNYMR,-097.133,+002.986,+000.397,-00.1406,+00.2749,+00.9144,+00.802,+01.367,-13.555,+00.592056,-00.122597,-00.599287*6D"
1710358284.6988692,-97.722,3.194,1.11,-0.1446,0.2839,0.9116,1.415,1.627,-11.699,0.410557,0.318234,-0.292504,"$VNYMR,-097.722,+003.194,+001.110,-00.1446,+00.2839,+00.9116,+01.415,+01.627,-11.699,+00.410557,+00.318234,-00.292504*61"
1710358284.7425108,-98.099,4.004,1.333,-0.1541,0.2785,0.9061,0.991,-0.082,-7.284,0.005568,0.561708,-0.26896,"$VNYMR,-098.099,+004.004,+001.333,-00.1541,+00.2785,+00.9061,+00.991,-00.082,-07.284,+00.005568,+00.561708,-00.268960*6E"
1710358284.786561,-98.46,4.584,1.115,-0.1614,0.2775,0.9096,0.928,-0.605,-5.804,-0.187029,0.30611,-0.247371,"$VNYMR,-098.460,+004.584,+001.115,-00.1614,+00.2775,+00.9096,+00.928,-00.605,-05.804,-00.187029,+00.306110,-00.247371*6A"
1710358284.8302286,-98.9,4.726,0.887,-0.1613,0.2809,0.9082,0.744,-2.211,-5.826,-0.086286,-0.034645,-0.395622,"$VNYMR,-098.900,+004.726,+000.887,-00.1613,+00.2809,+00.9082,+00.744,-02.211,-05.826,-00.086286,-00.034645,-00.395622*60"
1710358284.8734787,-99.513,4.623,0.737,-0.1636,0.272,0.907,0.846,-1.967,-6.274,-0.050376,-0.1062,-0.451314,"$VNYMR,-099.513,+004.623,+000.737,-00.1636,+00.2720,+00.9070,+00.846,-01.967,-06.274,-00.050376,-00.106200,-00.451314*64"
1710358284.9151042,-100.233,4.349,0.657,-0.1647,0.2698,0.9108,1.234,-0.545,-6.988,-0.022701,-0.256339,-0.463585,"$VNYMR,-100.233,+004.349,+000.657,-00.1647,+00.2698,+00.9108,+01.234,-00.545,-06.988,-00.022701,-00.256339,-00.463585*6C"
1710358284.958487,-100.682,3.986,0.559,-0.1626,0.2687,0.9147,1.649,0.578,-8.273,-0.05032,-0.265052,-0.180237,"$VNYMR,-100.682,+003.986,+000.559,-00.1626,+00.2687,+00.9147,+01.649,+00.578,-08.273,-00.050320,-00.265052,-00.180237*6E"
1710358285.001604,-100.843,3.543,0.475,-0.1575,0.2675,0.9086,1.578,-0.049,-9.178,-0.052791,-0.33894,-0.080823,"$VNYMR,-100.843,+003.543,+000.475,-00.1575,+00.2675,+00.9086,+01.578,-00.049,-09.178,-00.052791,-00.338940,-00.080823*6B"
1710358285.0457635,-100.919,3.145,0.37,-0.1554,0.2652,0.9126,1.689,0.418,-10.326,-0.085306,-0.226531,-0.02078,"$VNYMR,-100.919,+003.145,+000.370,-00.1554,+00.2652,+00.9126,+01.689,+00.418,-10.326,-00.085306,-00.226531,-00.020780*6A"
1710358285.089372,-100.938,2.987,0.111,-0.1534,0.2641,0.9165,1.63,-0.245,-9.726,-0.259893,-0.04935,-0.031183,"$VNYMR,-100.938,+002.987,+000.111,-00.1534,+00.2641,+00.9165,+01.630,-00.245,-09.726,-00.259893,-00.049350,-00.031183*65"
1710358285.1330483,-100.994,2.888,-0.456,-0.1535,0.2596,0.9204,1.597,0.365,-9.541,-0.431128,-0.112211,0.002557,"$VNYMR,-100.994,+002.888,-000.456,-00.1535,+00.2596,+00.9204,+01.597,+00.365,-09.541,-00.431128,-00.112211,+00.002557*68"
1710358285.174818,-100.905,2.608,-1.083,-0.1506,0.2507,0.9194,0.886,-1.068,-11.058,-0.43933,-0.229842,0.063319,"$VNYMR,-100.905,+002.608,-001.083,-00.1506,+00.2507,+00.9194,+00.886,-01.068,-11.058,-00.439330,-00.229842,+00.063319*67"
