Timestamp,Orientation X,Orientation Y,Orientation Z,Angular Velocity X,Angular Velocity Y,Angular Velocity Z,Linear Acceleration X,Linear Acceleration Y,Linear Acceleration Z,Magnetic Field X,Magnetic Field Y,Magnetic Field Z,Raw IMU Data String
1710358846.2119186,-129.177,4.169,2.431,0.021,0.2865,0.8995,0.438,0.045,-9.876,-0.019186,0.026091,-4e-06,"$VNYMR,-129.177,+004.169,+002.431,+00.0210,+00.2865,+00.8995,+00.438,+00.045,-09.876,-00.019186,+00.026091,-00.000004*6D"
1710358846.2378109,-129.215,4.179,2.434,0.0224,0.2987,0.9032,0.444,-0.065,-9.646,0.022086,-0.006762,-0.04086,"$VNYMR,-129.215,+004.179,+002.434,+00.0224,+00.2987,+00.9032,+00.444,-00.065,-09.646,+00.022086,-00.006762,-00.040860*6D"
1710358846.2631166,-129.308,4.11,2.471,0.0221,0.2887,0.9033,0.484,0.227,-9.625,0.015275,-0.064996,-0.04748,"$VNYMR,-129.308,+004.110,+002.471,+00.0221,+00.2887,+00.9033,+00.484,+00.227,-09.625,+00.015275,-00.064996,-00.047480*6E"
1710358846.288797,-129.369,4.046,2.413,0.02,0.2898,0.8981,0.505,0.109,-10.11,-0.04381,-0.027171,-0.041731,"$VNYMR,-129.369,+004.046,+002.413,+00.0200,+00.2898,+00.8981,+00.505,+00.109,-10.110,-00.043810,-00.027171,-00.041731*68"
1710358846.3145761,-129.433,4.012,2.403,0.0231,0.2864,0.9009,0.429,0.264,-10.176,0.013396,-0.022624,-0.053478,"$VNYMR,-129.433,+004.012,+002.403,+00.0231,+00.2864,+00.9009,+00.429,+00.264,-10.176,+00.013396,-00.022624,-00.053478*67"
1710358846.3407867,-129.433,4.056,2.436,0.0252,0.2886,0.8971,0.538,0.154,-9.795,0.02021,0.047934,0.021814,"$VNYMR,-129.433,+004.056,+002.436,+00.0252,+00.2886,+00.8971,+00.538,+00.154,-09.795,+00.020210,+00.047934,+00.021814*6C"
1710358846.3668141,-129.402,4.115,2.433,0.0252,0.2875,0.9022,0.528,0.029,-9.786,-0.02957,0.054667,0.02046,"$VNYMR,-129.402,+004.115,+002.433,+00.0252,+00.2875,+00.9022,+00.528,+00.029,-09.786,-00.029570,+00.054667,+00.020460*6C"
1710358846.3928845,-129.394,4.145,2.439,0.022,0.2831,0.9034,0.731,0.026,-9.378,0.016914,-0.015405,0.012697,"$VNYMR,-129.394,+004.145,+002.439,+00.0220,+00.2831,+00.9034,+00.731,+00.026,-09.378,+00.016914,-00.015405,+00.012697*63"
1710358846.4186177,-129.394,4.053,2.524,0.0244,0.2953,0.9033,0.653,0.085,-9.899,0.074626,-0.082133,0.008143,"$VNYMR,-129.394,+004.053,+002.524,+00.0244,+00.2953,+00.9033,+00.653,+00.085,-09.899,+00.074626,-00.082133,+00.008143*61"
1710358846.4446363,-129.385,4.019,2.536,0.0222,0.2931,0.8969,0.645,0.205,-10.336,-0.032001,0.02989,0.024306,"$VNYMR,-129.385,+004.019,+002.536,+00.0222,+00.2931,+00.8969,+00.645,+00.205,-10.336,-00.032001,+00.029890,+00.024306*69"
1710358846.4698324,-129.379,4.083,2.526,0.0244,0.2975,0.9008,0.72,0.067,-9.746,0.013056,0.029145,-0.014199,"$VNYMR,-129.379,+004.083,+002.526,+00.0244,+00.2975,+00.9008,+00.720,+00.067,-09.746,+00.013056,+00.029145,-00.014199*6F"
1710358846.495481,-129.391,4.092,2.56,0.0211,0.2909,0.9032,0.807,0.302,-9.465,0.030822,-0.013103,0.001992,"$VNYMR,-129.391,+004.092,+002.560,+00.0211,+00.2909,+00.9032,+00.807,+00.302,-09.465,+00.030822,-00.013103,+00.001992*67"
1710358846.5214021,-129.389,4.031,2.567,0.0231,0.2876,0.9047,0.669,-0.03,-9.776,-0.013378,-0.04638,-0.00919,"$VNYMR,-129.389,+004.031,+002.567,+00.0231,+00.2876,+00.9047,+00.669,-00.030,-09.776,-00.013378,-00.046380,-00.009190*64"
1710358846.5469222,-129.443,3.949,2.525,0.0243,0.2942,0.9021,0.804,0.244,-9.688,-0.01109,-0.083126,-0.044727,"$VNYMR,-129.443,+003.949,+002.525,+00.0243,+00.2942,+00.9021,+00.804,+00.244,-09.688,-00.011090,-00.083126,-00.044727*60"
1710358846.571904,-129.506,3.824,2.495,0.0243,0.2942,0.8996,0.731,-0.042,-10.121,-0.037394,-0.083115,-0.053098,"$VNYMR,-129.506,+003.824,+002.495,+00.0243,+00.2942,+00.8996,+00.731,-00.042,-10.121,-00.037394,-00.083115,-00.053098*65"
1710358846.598141,-129.596,3.75,2.458,0.0253,0.2908,0.9009,0.719,0.161,-10.089,-0.033886,-0.040463,-0.058349,"$VNYMR,-129.596,+003.750,+002.458,+00.0253,+00.2908,+00.9009,+00.719,+00.161,-10.089,-00.033886,-00.040463,-00.058349*6C"
1710358846.6237948,-129.674,3.747,2.403,0.0263,0.2919,0.8972,0.685,0.403,-10.386,-0.023148,0.025428,-0.044571,"$VNYMR,-129.674,+003.747,+002.403,+00.0263,+00.2919,+00.8972,+00.685,+00.403,-10.386,-00.023148,+00.025428,-00.044571*65"
1710358846.6496124,-129.713,3.836,2.379,0.0243,0.2909,0.9047,0.583,0.182,-9.772,-0.011175,0.053576,-0.030029,"$VNYMR,-129.713,+003.836,+002.379,+00.0243,+00.2909,+00.9047,+00.583,+00.182,-09.772,-00.011175,+00.053576,-00.030029*6A"
1710358846.6754067,-129.804,3.901,2.333,0.0253,0.2897,0.9022,0.493,0.152,-9.775,-0.032398,0.046915,-0.088891,"$VNYMR,-129.804,+003.901,+002.333,+00.0253,+00.2897,+00.9022,+00.493,+00.152,-09.775,-00.032398,+00.046915,-00.088891*63"
1710358846.701329,-129.893,4.016,2.284,0.0211,0.2898,0.902,0.551,0.34,-9.539,-0.018385,0.082595,-0.053541,"$VNYMR,-129.893,+004.016,+002.284,+00.0211,+00.2898,+00.9020,+00.551,+00.340,-09.539,-00.018385,+00.082595,-00.053541*69"
1710358846.7270324,-129.961,4.092,2.315,0.0201,0.2909,0.8994,0.574,0.077,-9.147,0.041599,0.017831,-0.045956,"$VNYMR,-129.961,+004.092,+002.315,+00.0201,+00.2909,+00.8994,+00.574,+00.077,-09.147,+00.041599,+00.017831,-00.045956*61"
1710358846.7522936,-130.053,4.098,2.345,0.02,0.2887,0.8931,0.648,0.118,-9.48,0.013744,0.009421,-0.047584,"$VNYMR,-130.053,+004.098,+002.345,+00.0200,+00.2887,+00.8931,+00.648,+00.118,-09.480,+00.013744,+00.009421,-00.047584*6B"
1710358846.777266,-130.129,4.08,2.413,0.0222,0.292,0.9007,0.512,0.248,-9.773,0.093603,-0.017126,-0.030466,"$VNYMR,-130.129,+004.080,+002.413,+00.0222,+00.2920,+00.9007,+00.512,+00.248,-09.773,+00.093603,-00.017126,-00.030466*62"
1710358846.8043647,-130.197,4.103,2.544,0.0231,0.2875,0.8971,0.332,0.055,-10.166,0.059383,0.07001,-0.047655,"$VNYMR,-130.197,+004.103,+002.544,+00.0231,+00.2875,+00.8971,+00.332,+00.055,-10.166,+00.059383,+00.070010,-00.047655*6E"
1710358846.8301492,-130.282,4.263,2.59,0.021,0.2876,0.9008,0.381,0.015,-9.53,0.038125,0.119082,-0.067912,"$VNYMR,-130.282,+004.263,+002.590,+00.0210,+00.2876,+00.9008,+00.381,+00.015,-09.530,+00.038125,+00.119082,-00.067912*62"
1710358846.856577,-130.421,4.374,2.611,0.0192,0.2987,0.8967,0.34,0.131,-9.32,0.013582,0.047542,-0.105182,"$VNYMR,-130.421,+004.374,+002.611,+00.0192,+00.2987,+00.8967,+00.340,+00.131,-09.320,+00.013582,+00.047542,-00.105182*6D"
1710358846.8831859,-130.567,4.459,2.584,0.0159,0.2888,0.903,0.353,0.142,-9.079,-0.023246,0.050072,-0.107294,"$VNYMR,-130.567,+004.459,+002.584,+00.0159,+00.2888,+00.9030,+00.353,+00.142,-09.079,-00.023246,+00.050072,-00.107294*6F"
1710358846.926902,-130.738,4.482,2.502,0.017,0.2921,0.9005,0.587,0.242,-9.004,-0.051415,-0.025145,-0.119493,"$VNYMR,-130.738,+004.482,+002.502,+00.0170,+00.2921,+00.9005,+00.587,+00.242,-09.004,-00.051415,-00.025145,-00.119493*6C"
1710358846.970157,-130.912,4.365,2.41,0.018,0.2921,0.8955,0.691,-0.195,-8.958,-0.058125,-0.14311,-0.136427,"$VNYMR,-130.912,+004.365,+002.410,+00.0180,+00.2921,+00.8955,+00.691,-00.195,-08.958,-00.058125,-00.143110,-00.136427*62"
1710358847.016579,-131.154,4.125,2.328,0.019,0.2876,0.8981,0.781,-0.216,-9.477,-0.045891,-0.185257,-0.16603,"$VNYMR,-131.154,+004.125,+002.328,+00.0190,+00.2876,+00.8981,+00.781,-00.216,-09.477,-00.045891,-00.185257,-00.166030*66"
1710358847.0447888,-131.444,3.861,2.281,0.02,0.2887,0.8944,1.37,0.378,-9.697,0.010953,-0.193007,-0.169393,"$VNYMR,-131.444,+003.861,+002.281,+00.0200,+00.2887,+00.8944,+01.370,+00.378,-09.697,+00.010953,-00.193007,-00.169393*67"
1710358847.060299,-131.617,3.54,2.323,0.021,0.2865,0.902,1.515,0.127,-10.032,0.049272,-0.233569,-0.059331,"$VNYMR,-131.617,+003.540,+002.323,+00.0210,+00.2865,+00.9020,+01.515,+00.127,-10.032,+00.049272,-00.233569,-00.059331*65"
1710358847.0861034,-131.659,3.29,2.406,0.0253,0.2931,0.8996,1.725,-0.882,-10.219,0.051897,-0.152202,-0.04304,"$VNYMR,-131.659,+003.290,+002.406,+00.0253,+00.2931,+00.8996,+01.725,-00.882,-10.219,+00.051897,-00.152202,-00.043040*65"
1710358847.1125553,-131.73,3.074,2.507,0.0244,0.2964,0.8957,1.688,-0.714,-10.19,0.110086,-0.177124,-0.04704,"$VNYMR,-131.730,+003.074,+002.507,+00.0244,+00.2964,+00.8957,+01.688,-00.714,-10.190,+00.110086,-00.177124,-00.047040*64"
1710358847.1378274,-131.774,2.938,2.653,0.0286,0.2975,0.901,1.265,-0.399,-10.94,0.090775,-0.035186,-0.015323,"$VNYMR,-131.774,+002.938,+002.653,+00.0286,+00.2975,+00.9010,+01.265,-00.399,-10.940,+00.090775,-00.035186,-00.015323*6C"
1710358847.1629567,-131.777,2.933,2.764,0.0275,0.2975,0.8984,1.005,-0.471,-10.957,0.073485,0.012236,-0.027682,"$VNYMR,-131.777,+002.933,+002.764,+00.0275,+00.2975,+00.8984,+01.005,-00.471,-10.957,+00.073485,+00.012236,-00.027682*6E"
1710358847.1910439,-131.868,3.06,2.843,0.0254,0.2942,0.8971,1.046,0.131,-10.767,0.031596,0.151984,-0.071569,"$VNYMR,-131.868,+003.060,+002.843,+00.0254,+00.2942,+00.8971,+01.046,+00.131,-10.767,+00.031596,+00.151984,-00.071569*6F"
1710358847.2340941,-131.945,3.448,2.739,0.0202,0.2965,0.8917,1.499,0.09,-8.491,-0.12683,0.268827,-0.082853,"$VNYMR,-131.945,+003.448,+002.739,+00.0202,+00.2965,+00.8917,+01.499,+00.090,-08.491,-00.126830,+00.268827,-00.082853*6D"
1710358847.277425,-132.002,3.652,2.519,0.0212,0.2931,0.8981,1.793,-0.298,-7.241,-0.159837,0.040631,-0.051431,"$VNYMR,-132.002,+003.652,+002.519,+00.0212,+00.2931,+00.8981,+01.793,-00.298,-07.241,-00.159837,+00.040631,-00.051431*6B"
1710358847.319409,-132.156,3.419,2.328,0.0211,0.2909,0.902,1.554,-0.484,-7.288,-0.097695,-0.328304,-0.130625,"$VNYMR,-132.156,+003.419,+002.328,+00.0211,+00.2909,+00.9020,+01.554,-00.484,-07.288,-00.097695,-00.328304,-00.130625*62"
1710358847.361972,-132.385,2.844,2.183,0.0275,0.2975,0.8984,1.011,-0.5,-9.01,-0.094861,-0.412974,-0.146118,"$VNYMR,-132.385,+002.844,+002.183,+00.0275,+00.2975,+00.8984,+01.011,-00.500,-09.010,-00.094861,-00.412974,-00.146118*6E"
1710358847.410246,-132.643,2.345,2.038,0.0286,0.2963,0.9023,0.97,-0.016,-9.599,-0.072867,-0.32424,-0.192323,"$VNYMR,-132.643,+002.345,+002.038,+00.0286,+00.2963,+00.9023,+00.970,-00.016,-09.599,-00.072867,-00.324240,-00.192323*6E"
1710358847.4525125,-132.753,1.897,2.049,0.0336,0.2907,0.9013,1.25,0.427,-9.186,0.024454,-0.424652,0.058969,"$VNYMR,-132.753,+001.897,+002.049,+00.0336,+00.2907,+00.9013,+01.250,+00.427,-09.186,+00.024454,-00.424652,+00.058969*6A"
1710358847.4960377,-132.847,1.462,2.049,0.0367,0.2895,0.8977,1.307,-0.119,-10.249,0.014246,-0.215641,-0.089118,"$VNYMR,-132.847,+001.462,+002.049,+00.0367,+00.2895,+00.8977,+01.307,-00.119,-10.249,+00.014246,-00.215641,-00.089118*63"
1710358847.5377586,-132.926,1.238,2.001,0.0357,0.2907,0.8989,1.559,0.562,-10.59,-0.05927,-0.092356,-0.014463,"$VNYMR,-132.926,+001.238,+002.001,+00.0357,+00.2907,+00.8989,+01.559,+00.562,-10.590,-00.059270,-00.092356,-00.014463*61"
1710358847.580151,-132.826,1.251,1.901,0.0401,0.2984,0.9015,1.847,0.272,-10.15,-0.063274,0.066129,0.09536,"$VNYMR,-132.826,+001.251,+001.901,+00.0401,+00.2984,+00.9015,+01.847,+00.272,-10.150,-00.063274,+00.066129,+00.095360*6A"
1710358847.6240122,-132.646,1.342,1.804,0.0387,0.2873,0.8991,1.975,0.361,-9.225,-0.063895,0.027408,0.143208,"$VNYMR,-132.646,+001.342,+001.804,+00.0387,+00.2873,+00.8991,+01.975,+00.361,-09.225,-00.063895,+00.027408,+00.143208*68"
1710358847.6664653,-132.364,1.24,1.778,0.0419,0.2894,0.9005,1.646,-0.084,-9.466,-0.007101,-0.126464,0.225123,"$VNYMR,-132.364,+001.240,+001.778,+00.0419,+00.2894,+00.9005,+01.646,-00.084,-09.466,-00.007101,-00.126464,+00.225123*65"
1710358847.708758,-132.094,1.01,1.702,0.042,0.2917,0.9005,1.139,-0.894,-9.882,-0.088499,-0.156547,0.154685,"$VNYMR,-132.094,+001.010,+001.702,+00.0420,+00.2917,+00.9005,+01.139,-00.894,-09.882,-00.088499,-00.156547,+00.154685*69"
1710358847.7517378,-132.012,0.798,1.609,0.0438,0.2827,0.9007,0.959,-1.08,-10.305,-0.043845,-0.14528,-0.009175,"$VNYMR,-132.012,+000.798,+001.609,+00.0438,+00.2827,+00.9007,+00.959,-01.080,-10.305,-00.043845,-00.145280,-00.009175*6E"
1710358847.802608,-132.128,0.658,1.549,0.0481,0.2871,0.9009,1.364,-0.437,-10.561,-0.039755,-0.101606,-0.074196,"$VNYMR,-132.128,+000.658,+001.549,+00.0481,+00.2871,+00.9009,+01.364,-00.437,-10.561,-00.039755,-00.101606,-00.074196*65"
1710358847.8459554,-132.204,0.716,1.481,0.048,0.2827,0.8971,1.848,0.161,-10.441,-0.06599,0.086502,0.001102,"$VNYMR,-132.204,+000.716,+001.481,+00.0480,+00.2827,+00.8971,+01.848,+00.161,-10.441,-00.065990,+00.086502,+00.001102*6D"
1710358847.8902922,-132.079,0.7,1.376,0.0481,0.286,0.9047,1.318,-0.443,-10.645,-0.091362,-0.089004,0.09551,"$VNYMR,-132.079,+000.700,+001.376,+00.0481,+00.2860,+00.9047,+01.318,-00.443,-10.645,-00.091362,-00.089004,+00.095510*65"
1710358847.9342687,-131.961,0.428,1.26,0.05,0.2804,0.9011,1.047,0.707,-11.593,-0.070857,-0.232265,0.133545,"$VNYMR,-131.961,+000.428,+001.260,+00.0500,+00.2804,+00.9011,+01.047,+00.707,-11.593,-00.070857,-00.232265,+00.133545*6D"
1710358847.9770048,-131.607,-0.016,1.205,0.0552,0.2803,0.9,0.135,1.116,-12.329,-0.014759,-0.343552,0.334513,"$VNYMR,-131.607,-000.016,+001.205,+00.0552,+00.2803,+00.9000,+00.135,+01.116,-12.329,-00.014759,-00.343552,+00.334513*69"
1710358848.020867,-131.003,-0.525,1.346,0.0605,0.2813,0.9028,-0.561,0.689,-12.902,0.188862,-0.337441,0.480108,"$VNYMR,-131.003,-000.525,+001.346,+00.0605,+00.2813,+00.9028,-00.561,+00.689,-12.902,+00.188862,-00.337441,+00.480108*61"
1710358848.0639176,-130.331,-1.063,1.78,0.0667,0.2834,0.8955,-1.287,0.238,-11.951,0.370135,-0.411401,0.475308,"$VNYMR,-130.331,-001.063,+001.780,+00.0667,+00.2834,+00.8955,-01.287,+00.238,-11.951,+00.370135,-00.411401,+00.475308*6D"
1710358848.1063514,-129.726,-1.63,2.298,0.0731,0.2867,0.8983,-1.897,-0.495,-11.935,0.314573,-0.339103,0.382114,"$VNYMR,-129.726,-001.630,+002.298,+00.0731,+00.2867,+00.8983,-01.897,-00.495,-11.935,+00.314573,-00.339103,+00.382114*67"
1710358848.1488554,-129.185,-1.744,2.507,0.0765,0.2988,0.8945,-2.275,-0.488,-11.97,0.042634,0.179306,0.393419,"$VNYMR,-129.185,-001.744,+002.507,+00.0765,+00.2988,+00.8945,-02.275,-00.488,-11.970,+00.042634,+00.179306,+00.393419*67"
1710358848.1913128,-128.776,-1.294,2.458,0.0741,0.2877,0.8907,-1.885,-1.25,-8.69,-0.027754,0.359719,0.167881,"$VNYMR,-128.776,-001.294,+002.458,+00.0741,+00.2877,+00.8907,-01.885,-01.250,-08.690,-00.027754,+00.359719,+00.167881*6F"
1710358848.233851,-128.762,-0.852,2.545,0.0722,0.2956,0.8956,-1.397,-0.851,-6.357,0.099097,0.24777,-0.052457,"$VNYMR,-128.762,-000.852,+002.545,+00.0722,+00.2956,+00.8956,-01.397,-00.851,-06.357,+00.099097,+00.247770,-00.052457*6B"
1710358848.2775304,-128.815,-0.948,2.485,0.0709,0.2834,0.8995,-1.357,-0.73,-6.689,-0.225532,-0.184121,-0.18801,"$VNYMR,-128.815,-000.948,+002.485,+00.0709,+00.2834,+00.8995,-01.357,-00.730,-06.689,-00.225532,-00.184121,-00.188010*62"
1710358848.3184016,-129.131,-1.255,2.224,0.0752,0.2877,0.8984,-0.287,3.243,-7.842,-0.027251,-0.271604,-0.109835,"$VNYMR,-129.131,-001.255,+002.224,+00.0752,+00.2877,+00.8984,-00.287,+03.243,-07.842,-00.027251,-00.271604,-00.109835*62"
1710358848.3573062,-129.014,-1.846,2.351,0.0793,0.2877,0.8973,-0.344,2.41,-9.454,0.113817,-0.445946,0.218703,"$VNYMR,-129.014,-001.846,+002.351,+00.0793,+00.2877,+00.8973,-00.344,+02.410,-09.454,+00.113817,-00.445946,+00.218703*6F"
1710358848.3976173,-128.609,-2.262,2.402,0.0846,0.2887,0.8976,-0.979,0.346,-10.758,-0.021542,-0.165602,0.282575,"$VNYMR,-128.609,-002.262,+002.402,+00.0846,+00.2887,+00.8976,-00.979,+00.346,-10.758,-00.021542,-00.165602,+00.282575*61"
1710358848.4370856,-128.299,-2.257,2.35,0.0865,0.2842,0.8965,-1.111,0.514,-10.725,0.014007,0.075432,0.188381,"$VNYMR,-128.299,-002.257,+002.350,+00.0865,+00.2842,+00.8965,-01.111,+00.514,-10.725,+00.014007,+00.075432,+00.188381*6B"
1710358848.4763067,-128.024,-2.15,2.491,0.0866,0.2875,0.8926,-0.967,-0.089,-10.685,0.135773,0.156073,0.174763,"$VNYMR,-128.024,-002.150,+002.491,+00.0866,+00.2875,+00.8926,-00.967,-00.089,-10.685,+00.135773,+00.156073,+00.174763*69"
1710358848.5158777,-127.784,-1.798,2.595,0.0857,0.292,0.8963,-0.543,-0.439,-9.83,0.020129,0.325275,0.128729,"$VNYMR,-127.784,-001.798,+002.595,+00.0857,+00.2920,+00.8963,-00.543,-00.439,-09.830,+00.020129,+00.325275,+00.128729*69"
1710358848.5550199,-127.666,-1.319,2.593,0.0814,0.2876,0.9,0.25,-0.338,-8.837,0.027234,0.332762,0.019873,"$VNYMR,-127.666,-001.319,+002.593,+00.0814,+00.2876,+00.9000,+00.250,-00.338,-08.837,+00.027234,+00.332762,+00.019873*6A"
1710358848.596433,-127.693,-1.021,2.678,0.0795,0.2954,0.8972,0.81,0.655,-8.517,0.092451,0.120104,-0.016553,"$VNYMR,-127.693,-001.021,+002.678,+00.0795,+00.2954,+00.8972,+00.810,+00.655,-08.517,+00.092451,+00.120104,-00.016553*67"
1710358848.6357386,-127.648,-0.899,2.877,0.0775,0.2988,0.8907,0.442,0.477,-9.246,0.146188,0.0774,0.042075,"$VNYMR,-127.648,-000.899,+002.877,+00.0775,+00.2988,+00.8907,+00.442,+00.477,-09.246,+00.146188,+00.077400,+00.042075*61"
1710358848.6786604,-127.359,-0.248,3.261,0.0724,0.3,0.8943,0.3,0.685,-8.564,0.171046,0.296806,0.151828,"$VNYMR,-127.359,-000.248,+003.261,+00.0724,+00.3000,+00.8943,+00.300,+00.685,-08.564,+00.171046,+00.296806,+00.151828*69"
1710358848.718651,-127.132,0.123,3.463,0.069,0.2923,0.8929,0.207,-0.339,-8.155,0.097907,0.226285,0.031903,"$VNYMR,-127.132,+000.123,+003.463,+00.0690,+00.2923,+00.8929,+00.207,-00.339,-08.155,+00.097907,+00.226285,+00.031903,-00.297759*60"
1710358848.7609076,-127.05,2.892,2.177,0.0501,0.2848,0.901,1.159,0.731,-8.35,0.151471,0.099658,-0.194914,"$VNYMR,-127.050,+002.892,+002.177,+00.0501,+00.2848,+00.9010,+01.159,+00.731,-08.350,+00.151471,+00.099658,-00.194914*6A"
1710358848.804957,-127.26,3.001,2.499,0.0512,0.2859,0.8985,1.083,0.706,-8.563,0.293999,0.058973,-0.116192,"$VNYMR,-127.260,+003.001,+002.499,+00.0512,+00.2859,+00.8985,+01.083,+00.706,-08.563,+00.293999,+00.058973,-00.116192*6E"
1710358848.8474114,-127.269,3.049,2.888,0.0492,0.2904,0.8996,0.597,0.279,-9.376,0.28084,0.052135,0.081377,"$VNYMR,-127.269,+003.049,+002.888,+00.0492,+00.2904,+00.8996,+00.597,+00.279,-09.376,+00.280840,+00.052135,+00.081377*6D"
1710358848.8835638,-127.354,3.16,3.335,0.0502,0.2893,0.9009,0.327,-0.886,-9.052,0.348697,0.03579,-0.181938,"$VNYMR,-127.354,+003.160,+003.335,+00.0502,+00.2893,+00.9009,+00.327,-00.886,-09.052,+00.348697,+00.035790,-00.181938*66"
1710358848.922924,-127.847,3.245,3.953,0.0474,0.3016,0.8968,0.795,0.735,-8.483,0.229252,0.003417,-0.381167,"$VNYMR,-127.847,+003.245,+003.953,+00.0474,+00.3016,+00.8968,+00.795,+00.735,-08.483,+00.229252,+00.003417,-00.381167*6D"
1710358848.9618347,-128.222,3.3,4.223,0.0473,0.2993,0.8917,0.96,-0.398,-10.177,0.158733,0.058388,-0.24751,"$VNYMR,-128.222,+003.300,+004.223,+00.0473,+00.2993,+00.8917,+00.960,-00.398,-10.177,+00.158733,+00.058388,-00.247510*6B"
1710358849.0034459,-128.788,3.476,4.422,0.0404,0.3139,0.8899,1.414,0.246,-9.774,0.203268,0.059723,-0.455662,"$VNYMR,-128.788,+003.476,+004.422,+00.0404,+00.3139,+00.8899,+01.414,+00.246,-09.774,+00.203268,+00.059723,-00.455662*66"
1710358849.0425742,-129.345,3.527,4.774,0.0392,0.3084,0.8899,1.229,-0.095,-10.093,0.244067,-0.038974,-0.349797,"$VNYMR,-129.345,+003.527,+004.774,+00.0392,+00.3084,+00.8899,+01.229,-00.095,-10.093,+00.244067,-00.038974,-00.349797*6E"
1710358849.0819151,-129.828,3.712,4.937,0.034,0.3073,0.8935,0.576,-0.748,-10.567,0.085473,0.131743,-0.364223,"$VNYMR,-129.828,+003.712,+004.937,+00.0340,+00.3073,+00.8935,+00.576,-00.748,-10.567,+00.085473,+00.131743,-00.364223*69"
1710358849.1199043,-130.331,3.888,5.077,0.033,0.3096,0.8934,0.781,-0.438,-10.486,0.210426,0.014422,-0.375724,"$VNYMR,-130.331,+003.888,+005.077,+00.0330,+00.3096,+00.8934,+00.781,-00.438,-10.486,+00.210426,+00.014422,-00.375724*61"
1710358849.134626,-130.848,4.011,5.364,0.03,0.3152,0.8868,0.862,-0.819,-10.693,0.064707,0.089987,-0.318117,"$VNYMR,-130.848,+004.011,+005.364,+00.0300,+00.3152,+00.8868,+00.862,-00.819,-10.693,+00.064707,+00.089987,-00.318117*69"
1710358849.1602776,-131.251,4.081,5.393,0.03,0.3152,0.8881,1.129,-0.616,-11.243,-0.002461,-0.045331,-0.242056,"$VNYMR,-131.251,+004.081,+005.393,+00.0300,+00.3152,+00.8881,+01.129,-00.616,-11.243,-00.002461,-00.045331,-00.242056*6C"
1710358849.1863775,-131.679,3.955,5.429,0.0258,0.3141,0.8854,0.612,-1.013,-10.957,0.033045,-0.190196,-0.280984,"$VNYMR,-131.679,+003.955,+005.429,+00.0258,+00.3141,+00.8854,+00.612,-01.013,-10.957,+00.033045,-00.190196,-00.280984*6E"
1710358849.2122548,-132.311,3.493,5.44,0.0289,0.3141,0.8843,0.139,-0.88,-11.846,0.035058,-0.467394,-0.500442,"$VNYMR,-132.311,+003.493,+005.440,+00.0289,+00.3141,+00.8843,+00.139,-00.880,-11.846,+00.035058,-00.467394,-00.500442*66"
1710358849.2372708,-133.06,2.905,5.375,0.0342,0.3173,0.8845,-0.182,1.272,-14.324,-0.084717,-0.312652,-0.37655,"$VNYMR,-133.060,+002.905,+005.375,+00.0342,+00.3173,+00.8845,-00.182,+01.272,-14.324,-00.084717,-00.312652,-00.376550*62"
1710358849.2633328,-133.396,2.975,5.313,0.0321,0.3174,0.8869,-0.219,0.296,-12.453,0.026696,0.231644,-0.163383,"$VNYMR,-133.396,+002.975,+005.313,+00.0321,+00.3174,+00.8869,-00.219,+00.296,-12.453,+00.026696,+00.231644,-00.163383*61"
1710358849.2890549,-133.494,3.534,5.362,0.028,0.3163,0.888,0.126,-0.329,-8.578,0.081241,0.425465,-0.042407,"$VNYMR,-133.494,+003.534,+005.362,+00.0280,+00.3163,+00.8880,+00.126,-00.329,-08.578,+00.081241,+00.425465,-00.042407*60"
1710358849.3144681,-133.609,3.966,5.481,0.0218,0.3209,0.8863,0.34,-1.743,-6.935,0.072831,0.21426,-0.177022,"$VNYMR,-133.609,+003.966,+005.481,+00.0218,+00.3209,+00.8863,+00.340,-01.743,-06.935,+00.072831,+00.214260,-00.177022*66"
1710358849.340496,-133.858,4.102,5.379,0.0186,0.3187,0.8887,0.22,-1.452,-7.191,-0.148345,-0.00126,-0.184066,"$VNYMR,-133.858,+004.102,+005.379,+00.0186,+00.3187,+00.8887,+00.220,-01.452,-07.191,-00.148345,-00.001260,-00.184066*63"
1710358849.3666615,-134.126,3.855,5.214,0.0196,0.3154,0.8888,-0.092,-0.874,-9.058,-0.049041,-0.271011,-0.166784,"$VNYMR,-134.126,+003.855,+005.214,+00.0196,+00.3154,+00.8888,-00.092,-00.874,-09.058,-00.049041,-00.271011,-00.166784*6D"
1710358849.3918095,-134.285,3.535,5.101,0.0248,0.3142,0.8879,-0.382,-0.954,-10.324,-0.110405,-0.185774,-0.077047,"$VNYMR,-134.285,+003.535,+005.101,+00.0248,+00.3142,+00.8879,-00.382,-00.954,-10.324,-00.110405,-00.185774,-00.077047*6F"
1710358849.418037,-134.39,3.442,4.878,0.0248,0.3164,0.8891,-0.493,-0.655,-10.373,-0.1691,-0.01188,-0.073546,"$VNYMR,-134.390,+003.442,+004.878,+00.0248,+00.3164,+00.8891,-00.493,-00.655,-10.373,-00.169100,-00.011880,-00.073546*62"
1710358849.4434342,-134.444,3.509,4.694,0.0216,0.3109,0.889,-0.245,-0.575,-8.674,-0.10062,0.023272,-0.022862,"$VNYMR,-134.444,+003.509,+004.694,+00.0216,+00.3109,+00.8890,-00.245,-00.575,-08.674,-00.100620,+00.023272,-00.022862*6D"
1710358849.468872,-134.553,3.406,4.566,0.0237,0.3131,0.8866,0.134,-1.25,-7.926,-0.09495,-0.139803,-0.114446,"$VNYMR,-134.553,+003.406,+004.566,+00.0237,+00.3131,+00.8866,+00.134,-01.250,-07.926,-00.094950,-00.139803,-00.114446*64"
1710358849.4945624,-134.735,3.234,4.362,0.0246,0.3086,0.8892,0.433,-0.641,-8.112,-0.201777,-0.122572,-0.102555,"$VNYMR,-134.735,+003.234,+004.362,+00.0246,+00.3086,+00.8892,+00.433,-00.641,-08.112,-00.201777,-00.122572,-00.102555*64"
1710358849.5205402,-134.897,3.204,4.039,0.0235,0.3053,0.8943,0.729,-0.84,-8.056,-0.231305,0.019501,-0.130482,"$VNYMR,-134.897,+003.204,+004.039,+00.0235,+00.3053,+00.8943,+00.729,-00.840,-08.056,-00.231305,+00.019501,-00.130482*69"
1710358849.5459962,-135.15,3.166,3.839,0.0246,0.3053,0.8956,1.173,-0.709,-6.635,-0.071933,-0.151198,-0.197864,"$VNYMR,-135.150,+003.166,+003.839,+00.0246,+00.3053,+00.8956,+01.173,-00.709,-06.635,-00.071933,-00.151198,-00.197864*6A"
1710358849.5715907,-135.46,2.846,3.7,0.0255,0.3019,0.8919,1.335,-0.683,-7.543,-0.109427,-0.277477,-0.197932,"$VNYMR,-135.460,+002.846,+003.700,+00.0255,+00.3019,+00.8919,+01.335,-00.683,-07.543,-00.109427,-00.277477,-00.197932*63"
1710358849.5976155,-135.76,2.562,3.427,0.0255,0.3008,0.8906,0.924,-0.982,-8.901,-0.202302,-0.161759,-0.216811,"$VNYMR,-135.760,+002.562,+003.427,+00.0255,+00.3008,+00.8906,+00.924,-00.982,-08.901,-00.202302,-00.161759,-00.216811*6A"
1710358849.6228442,-136.066,2.408,3.186,0.0225,0.3042,0.8955,0.966,-0.317,-9.174,-0.139633,-0.123125,-0.199501,"$VNYMR,-136.066,+002.408,+003.186,+00.0225,+00.3042,+00.8955,+00.966,-00.317,-09.174,-00.139633,-00.123125,-00.199501*60"
1710358849.6490295,-136.282,2.165,3.06,0.0297,0.303,0.8933,0.945,-0.137,-11.095,-0.036782,-0.149566,-0.103199,"$VNYMR,-136.282,+002.165,+003.060,+00.0297,+00.3030,+00.8933,+00.945,-00.137,-11.095,-00.036782,-00.149566,-00.103199*69"
1710358849.6740806,-136.392,2.146,2.999,0.0286,0.2986,0.8959,1.027,-0.358,-10.463,-0.057115,0.031308,-0.057828,"$VNYMR,-136.392,+002.146,+002.999,+00.0286,+00.2986,+00.8959,+01.027,-00.358,-10.463,-00.057115,+00.031308,-00.057828*6E"
1710358849.6994045,-136.325,2.13,2.886,0.0296,0.2963,0.8985,0.944,0.024,-11.591,-0.063356,0.00829,0.145728,"$VNYMR,-136.325,+002.130,+002.886,+00.0296,+00.2963,+00.8985,+00.944,+00.024,-11.591,-00.063356,+00.008290,+00.145728*6A"
1710358849.7253165,-136.149,2.194,2.771,0.0285,0.2941,0.8922,0.391,-0.736,-12.234,-0.102263,0.058287,0.065688,"$VNYMR,-136.149,+002.194,+002.771,+00.0285,+00.2941,+00.8922,+00.391,-00.736,-12.234,-00.102263,+00.058287,+00.065688*65"
1710358849.750747,-136.088,2.364,2.647,0.0327,0.2951,0.8923,0.521,-0.053,-12.038,-0.077279,0.113293,0.019015,"$VNYMR,-136.088,+002.364,+002.647,+00.0327,+00.2951,+00.8923,+00.521,-00.053,-12.038,-00.077279,+00.113293,+00.019015*64"
1710358849.7775202,-135.974,2.526,2.565,0.0264,0.2953,0.8958,0.501,-0.457,-11.703,-0.091331,0.115015,0.091465,"$VNYMR,-135.974,+002.526,+002.565,+00.0264,+00.2953,+00.8958,+00.501,-00.457,-11.703,-00.091331,+00.115015,+00.091465*64"
1710358849.804381,-135.822,2.657,2.459,0.0253,0.2942,0.892,0.32,-0.614,-11.467,-0.081537,0.093025,0.090787,"$VNYMR,-135.822,+002.657,+002.459,+00.0253,+00.2942,+00.8920,+00.320,-00.614,-11.467,-00.081537,+00.093025,+00.090787*64"
1710358849.8578506,-135.697,2.591,2.346,0.0274,0.293,0.8972,0.015,-0.157,-11.049,-0.078083,-0.135092,0.083104,"$VNYMR,-135.697,+002.591,+002.346,+00.0274,+00.2930,+00.8972,+00.015,-00.157,-11.049,-00.078083,-00.135092,+00.083104*6A"
1710358849.9005854,-135.535,2.281,2.3,0.0305,0.2919,0.8961,-0.609,0.649,-12.427,-0.007436,-0.227618,0.165352,"$VNYMR,-135.535,+002.281,+002.300,+00.0305,+00.2919,+00.8961,-00.609,+00.649,-12.427,-00.007436,-00.227618,+00.165352*69"
1710358849.9429793,-135.184,2.043,2.351,0.0336,0.2907,0.8988,-1.009,0.929,-12.908,0.074185,-0.06943,0.337525,"$VNYMR,-135.184,+002.043,+002.351,+00.0336,+00.2907,+00.8988,-01.009,+00.929,-12.908,+00.074185,-00.069430,+00.337525*65"
1710358849.9864473,-134.65,2.158,2.502,0.0347,0.294,0.8975,-0.948,0.023,-11.264,0.06052,0.218442,0.370479,"$VNYMR,-134.650,+002.158,+002.502,+00.0347,+00.2940,+00.8975,-00.948,+00.023,-11.264,+00.060520,+00.218442,+00.370479*68"
1710358850.0088315,-134.108,2.585,2.554,0.0348,0.2962,0.8962,-0.844,-0.112,-9.166,0.041437,0.360944,0.356703,"$VNYMR,-134.108,+002.585,+002.554,+00.0348,+00.2962,+00.8962,-00.844,-00.112,-09.166,+00.041437,+00.360944,+00.356703*67"
1710358850.0283716,-133.673,2.989,2.643,0.0318,0.3018,0.8973,-0.321,-0.408,-7.674,0.079632,0.230191,0.233222,"$VNYMR,-133.673,+002.989,+002.643,+00.0318,+00.3018,+00.8973,-00.321,-00.408,-07.674,+00.079632,+00.230191,+00.233222*6E"
1710358850.0558517,-133.425,3.118,2.807,0.0317,0.2985,0.9011,-0.171,0.225,-8.029,0.106048,0.023003,0.132685,"$VNYMR,-133.425,+003.118,+002.807,+00.0317,+00.2985,+00.9011,-00.171,+00.225,-08.029,+00.106048,+00.023003,+00.132685*65"
1710358850.0803292,-133.157,3.099,2.941,0.0327,0.2974,0.8949,-0.103,1.283,-9.214,0.07754,0.010808,0.245953,"$VNYMR,-133.157,+003.099,+002.941,+00.0327,+00.2974,+00.8949,-00.103,+01.283,-09.214,+00.077540,+00.010808,+00.245953*6D"
1710358850.1066577,-132.768,3.063,3.085,0.0348,0.2984,0.8987,-0.498,0.133,-9.373,0.076382,-0.039804,0.238957,"$VNYMR,-132.768,+003.063,+003.085,+00.0348,+00.2984,+00.8987,-00.498,+00.133,-09.373,+00.076382,-00.039804,+00.238957*6F"
1710358850.1313567,-132.47,2.995,3.229,0.0359,0.2984,0.895,-0.534,0.314,-8.817,0.107272,-0.060438,0.203217,"$VNYMR,-132.470,+002.995,+003.229,+00.0359,+00.2984,+00.8950,-00.534,+00.314,-08.817,+00.107272,-00.060438,+00.203217*63"
1710358850.1853116,-132.234,2.783,3.442,0.041,0.2961,0.8991,-0.238,-0.078,-8.608,0.135273,-0.161793,0.142576,"$VNYMR,-132.234,+002.783,+003.442,+00.0410,+00.2961,+00.8991,-00.238,-00.078,-08.608,+00.135273,-00.161793,+00.142576*6B"
1710358850.2286088,-132.088,2.647,3.521,0.0401,0.3006,0.8977,0.3,-0.468,-8.365,-0.001547,-0.027824,0.056701,"$VNYMR,-132.088,+002.647,+003.521,+00.0401,+00.3006,+00.8977,+00.300,-00.468,-08.365,-00.001547,-00.027824,+00.056701*63"
1710358850.2711122,-132.023,2.615,3.505,0.0421,0.2983,0.894,1.164,0.69,-7.986,0.026246,-0.026396,0.079376,"$VNYMR,-132.023,+002.615,+003.505,+00.0421,+00.2983,+00.8940,+01.164,+00.690,-07.986,+00.026246,-00.026396,+00.079376*65"
1710358850.3135278,-131.837,2.582,3.593,0.0421,0.2983,0.894,1.255,-0.282,-7.548,0.032866,-0.034995,0.126613,"$VNYMR,-131.837,+002.582,+003.593,+00.0421,+00.2983,+00.8940,+01.255,-00.282,-07.548,+00.032866,-00.034995,+00.126613*6D"
1710358850.3569832,-131.716,2.441,3.69,0.0442,0.3005,0.8916,1.226,-0.065,-7.359,0.080227,-0.187991,0.069669,"$VNYMR,-131.716,+002.441,+003.690,+00.0442,+00.3005,+00.8916,+01.226,-00.065,-07.359,+00.080227,-00.187991,+00.069669*6A"
1710358850.402105,-131.607,2.122,3.84,0.0464,0.3016,0.8967,0.741,-0.417,-9.293,0.086039,-0.181558,0.07367,"$VNYMR,-131.607,+002.122,+003.840,+00.0464,+00.3016,+00.8967,+00.741,-00.417,-09.293,+00.086039,-00.181558,+00.073670*62"
1710358850.4183247,-131.609,2.068,3.871,0.0496,0.3082,0.893,0.788,0.13,-9.246,0.01354,0.004427,-0.02211,"$VNYMR,-131.609,+002.068,+003.871,+00.0496,+00.3082,+00.8930,+00.788,+00.130,-09.246,+00.013540,+00.004427,-00.022110*6F"
1710358850.4501956,-131.615,2.031,3.994,0.0496,0.3048,0.8956,0.986,0.43,-8.798,0.121816,-0.065011,0.024087,"$VNYMR,-131.615,+002.031,+003.994,+00.0496,+00.3048,+00.8956,+00.986,+00.430,-08.798,+00.121816,-00.065011,+00.024087*61"
1710358850.4706123,-131.613,1.953,4.176,0.0495,0.3026,0.8931,0.768,-0.919,-9.682,0.11709,-0.035483,-0.046691,"$VNYMR,-131.613,+001.953,+004.176,+00.0495,+00.3026,+00.8931,+00.768,-00.919,-09.682,+00.117090,-00.035483,-00.046691*6F"
1710358850.500465,-131.861,2.045,4.275,0.0465,0.3082,0.8903,0.857,-0.45,-9.866,0.040151,0.079109,-0.235798,"$VNYMR,-131.861,+002.045,+004.275,+00.0465,+00.3082,+00.8903,+00.857,-00.450,-09.866,+00.040151,+00.079109,-00.235798*66"
1710358850.54641,-132.204,2.241,4.347,0.0466,0.3127,0.8928,0.768,0.15,-9.626,0.093784,0.075007,-0.243382,"$VNYMR,-132.204,+002.241,+004.347,+00.0466,+00.3127,+00.8928,+00.768,+00.150,-09.626,+00.093784,+00.075007,-00.243382*69"
1710358850.5904696,-132.461,2.266,4.512,0.0443,0.3049,0.8902,0.094,-0.469,-11.451,0.117672,-0.002674,-0.156083,"$VNYMR,-132.461,+002.266,+004.512,+00.0443,+00.3049,+00.8902,+00.094,-00.469,-11.451,+00.117672,-00.002674,-00.156083*6B"
1710358850.635591,-132.853,2.372,4.62,0.0445,0.3094,0.8927,-0.009,-0.525,-12.091,0.088973,0.087197,-0.36118,"$VNYMR,-132.853,+002.372,+004.620,+00.0445,+00.3094,+00.8927,-00.009,-00.525,-12.091,+00.088973,+00.087197,-00.361180*6D"
1710358850.679101,-133.329,2.506,4.759,0.0403,0.3117,0.8899,0.702,-0.299,-11.511,0.097517,0.03833,-0.324543,"$VNYMR,-133.329,+002.506,+004.759,+00.0403,+00.3117,+00.8899,+00.702,-00.299,-11.511,+00.097517,+00.038330,-00.324543*69"
1710358850.7227902,-133.728,2.59,4.751,0.0382,0.3095,0.8911,0.751,-0.427,-11.774,-0.007732,0.018162,-0.270289,"$VNYMR,-133.728,+002.590,+004.751,+00.0382,+00.3095,+00.8911,+00.751,-00.427,-11.774,-00.007732,+00.018162,-00.270289*67"
1710358850.7667093,-134.07,2.497,4.688,0.0362,0.3106,0.8923,0.267,-0.884,-11.076,-0.02581,-0.181516,-0.206275,"$VNYMR,-134.070,+002.497,+004.688,+00.0362,+00.3106,+00.8923,+00.267,-00.884,-11.076,-00.025810,-00.181516,-00.206275*60"
1710358850.810331,-134.493,1.935,4.662,0.0402,0.3072,0.8887,-0.572,-1.043,-12.602,0.034703,-0.527972,-0.299059,"$VNYMR,-134.493,+001.935,+004.662,+00.0402,+00.3072,+00.8887,-00.572,-01.043,-12.602,+00.034703,-00.527972,-00.299059*61"
1710358850.85424,-134.981,1.242,4.703,0.0445,0.3116,0.8851,-1.33,0.045,-15.384,0.01062,-0.372349,-0.266694,"$VNYMR,-134.981,+001.242,+004.703,+00.0445,+00.3116,+00.8851,-01.330,+00.045,-15.384,+00.010620,-00.372349,-00.266694*60"
1710358850.8977313,-135.296,1.392,4.595,0.0434,0.3094,0.8939,-1.309,0.099,-13.942,-0.094802,0.397867,-0.225846,"$VNYMR,-135.296,+001.392,+004.595,+00.0434,+00.3094,+00.8939,-01.309,+00.099,-13.942,-00.094802,+00.397867,-00.225846*6A"
1710358850.941172,-135.38,2.191,4.471,0.0361,0.3084,0.8834,-0.286,0.162,-8.495,-0.032041,0.504002,-0.042573,"$VNYMR,-135.380,+002.191,+004.471,+00.0361,+00.3084,+00.8834,-00.286,+00.162,-08.495,-00.032041,+00.504002,-00.042573*6C"
1710358850.9848156,-135.393,2.638,4.583,0.0342,0.314,0.8909,0.078,-1.065,-6.364,0.10274,0.126757,-0.040695,"$VNYMR,-135.393,+002.638,+004.583,+00.0342,+00.3140,+00.8909,+00.078,-01.065,-06.364,+00.102740,+00.126757,-00.040695*6A"
1710358851.0308194,-135.377,2.665,4.637,0.0321,0.314,0.892,-0.591,-1.786,-8.374,-0.002902,0.045539,0.007956,"$VNYMR,-135.377,+002.665,+004.637,+00.0321,+00.3140,+00.8920,-00.591,-01.786,-08.374,-00.002902,+00.045539,+00.007956*6F"
1710358851.0746198,-135.399,2.73,4.504,0.0309,0.3085,0.8921,-0.846,-1.343,-8.699,-0.13505,0.04863,-0.03463,"$VNYMR,-135.399,+002.730,+004.504,+00.0309,+00.3085,+00.8921,-00.846,-01.343,-08.699,-00.135050,+00.048630,-00.034630*67"
1710358851.0909925,-135.444,2.698,4.403,0.033,0.3096,0.8871,-0.907,-1.107,-8.695,-0.02227,-0.105043,-0.039343,"$VNYMR,-135.444,+002.698,+004.403,+00.0330,+00.3096,+00.8871,-00.907,-01.107,-08.695,-00.022270,-00.105043,-00.039343*64"
1710358851.1214437,-135.512,2.501,4.472,0.0333,0.3207,0.8907,-0.957,-0.747,-9.437,0.077391,-0.127873,-0.02979,"$VNYMR,-135.512,+002.501,+004.472,+00.0333,+00.3207,+00.8907,-00.957,-00.747,-09.437,+00.077391,-00.127873,-00.029790*6F"
1710358851.1664255,-135.555,2.508,4.491,0.033,0.3096,0.8858,-0.774,-0.837,-8.928,-0.032071,0.088943,-0.044164,"$VNYMR,-135.555,+002.508,+004.491,+00.0330,+00.3096,+00.8858,-00.774,-00.837,-08.928,-00.032071,+00.088943,-00.044164*63"
1710358851.2103992,-135.702,2.711,4.402,0.0299,0.3119,0.8907,-0.07,-0.754,-7.333,-0.0506,0.138093,-0.146344,"$VNYMR,-135.702,+002.711,+004.402,+00.0299,+00.3119,+00.8907,-00.070,-00.754,-07.333,-00.050600,+00.138093,-00.146344*63"
1710358851.2555661,-135.957,2.737,4.374,0.0288,0.3074,0.8894,0.411,0.052,-6.566,0.004674,-0.079471,-0.160772,"$VNYMR,-135.957,+002.737,+004.374,+00.0288,+00.3074,+00.8894,+00.411,+00.052,-06.566,+00.004674,-00.079471,-00.160772*60"
1710358851.299188,-136.096,2.627,4.3,0.032,0.3096,0.8883,0.287,-0.747,-7.154,-0.088659,-0.078276,-0.068878,"$VNYMR,-136.096,+002.627,+004.300,+00.0320,+00.3096,+00.8883,+00.287,-00.747,-07.154,-00.088659,-00.078276,-00.068878*64"
1710358851.341636,-136.298,2.545,4.083,0.0297,0.3041,0.8895,0.356,-0.997,-7.418,-0.174791,-0.083277,-0.189717,"$VNYMR,-136.298,+002.545,+004.083,+00.0297,+00.3041,+00.8895,+00.356,-00.997,-07.418,-00.174791,-00.083277,-00.189717*6E"
1710358851.3830085,-136.556,2.387,3.854,0.0298,0.3074,0.8882,0.474,0.08,-7.849,-0.097157,-0.185779,-0.126663,"$VNYMR,-136.556,+002.387,+003.854,+00.0298,+00.3074,+00.8882,+00.474,+00.080,-07.849,-00.097157,-00.185779,-00.126663*64"
1710358851.4187896,-136.625,1.976,3.854,0.0381,0.305,0.8912,0.347,-0.554,-8.875,0.034453,-0.358867,0.002325,"$VNYMR,-136.625,+001.976,+003.854,+00.0381,+00.3050,+00.8912,+00.347,-00.554,-08.875,+00.034453,-00.358867,+00.002325*64"
1710358851.4338024,-136.581,1.53,3.862,0.0392,0.3061,0.8887,0.895,-0.557,-10.422,-0.009648,-0.230674,0.088305,"$VNYMR,-136.581,+001.530,+003.862,+00.0392,+00.3061,+00.8887,+00.895,-00.557,-10.422,-00.009648,-00.230674,+00.088305*6C"
1710358851.4922848,-136.446,1.348,3.768,0.0413,0.3061,0.8939,1.297,-0.747,-10.488,-0.114554,-0.060697,0.107551,"$VNYMR,-136.446,+001.348,+003.768,+00.0413,+00.3061,+00.8939,+01.297,-00.747,-10.488,-00.114554,-00.060697,+00.107551*62"
1710358851.5358942,-136.289,1.308,3.622,0.0402,0.3039,0.8939,1.644,0.142,-10.327,-0.084897,-0.0327,0.133125,"$VNYMR,-136.289,+001.308,+003.622,+00.0402,+00.3039,+00.8939,+01.644,+00.142,-10.327,-00.084897,-00.032700,+00.133125*6E"
1710358851.578991,-135.998,1.279,3.598,0.0401,0.3017,0.8875,1.388,-1.316,-10.849,-0.017233,0.023299,0.190803,"$VNYMR,-135.998,+001.279,+003.598,+00.0401,+00.3017,+00.8875,+01.388,-01.316,-10.849,-00.017233,+00.023299,+00.190803*6E"
1710358851.624433,-135.855,1.382,3.52,0.0432,0.2994,0.8915,0.65,-1.65,-11.029,-0.065123,0.083423,0.012653,"$VNYMR,-135.855,+001.382,+003.520,+00.0432,+00.2994,+00.8915,+00.650,-01.650,-11.029,-00.065123,+00.083423,+00.012653*6F"
1710358851.667069,-136.009,1.44,3.483,0.0421,0.3005,0.8902,0.179,-1.403,-11.48,-0.001499,-0.005228,-0.199474,"$VNYMR,-136.009,+001.440,+003.483,+00.0421,+00.3005,+00.8902,+00.179,-01.403,-11.480,-00.001499,-00.005228,-00.199474*67"
1710358851.7104554,-136.329,1.432,3.432,0.0442,0.2983,0.8878,0.25,-0.368,-11.447,-0.079714,-0.018451,-0.199086,"$VNYMR,-136.329,+001.432,+003.432,+00.0442,+00.2983,+00.8878,+00.250,-00.368,-11.447,-00.079714,-00.018451,-00.199086*6A"
1710358851.7534623,-136.484,1.46,3.143,0.038,0.3017,0.895,-0.117,-0.856,-12.146,-0.23302,0.02825,-0.081702,"$VNYMR,-136.484,+001.460,+003.143,+00.0380,+00.3017,+00.8950,-00.117,-00.856,-12.146,-00.233020,+00.028250,-00.081702*63"
1710358851.7984667,-136.696,1.299,2.98,0.039,0.2995,0.8989,-0.376,-0.451,-12.531,-0.030741,-0.222086,-0.15891,"$VNYMR,-136.696,+001.299,+002.980,+00.0390,+00.2995,+00.8989,-00.376,-00.451,-12.531,-00.030741,-00.222086,-00.158910*67"
1710358851.8425446,-136.821,0.914,2.969,0.0421,0.2972,0.8953,-0.833,1.177,-14.25,0.007578,-0.256146,0.010738,"$VNYMR,-136.821,+000.914,+002.969,+00.0421,+00.2972,+00.8953,-00.833,+01.177,-14.250,+00.007578,-00.256146,+00.010738*6F"
1710358851.8855195,-136.485,0.82,3.06,0.0463,0.2982,0.893,-1.764,0.659,-13.83,0.09978,0.077995,0.348497,"$VNYMR,-136.485,+000.820,+003.060,+00.0463,+00.2982,+00.8930,-01.764,+00.659,-13.830,+00.099780,+00.077995,+00.348497*60"
1710358851.9258723,-135.965,1.111,3.204,0.0466,0.3104,0.8903,-2.316,-0.64,-11.513,0.065005,0.317512,0.313642,"$VNYMR,-135.965,+001.111,+003.204,+00.0466,+00.3104,+00.8903,-02.316,-00.640,-11.513,+00.065005,+00.317512,+00.313642*61"
1710358851.966889,-135.501,1.665,3.228,0.0432,0.2983,0.8954,-2.006,-0.46,-9.248,-0.0277,0.452294,0.300611,"$VNYMR,-135.501,+001.665,+003.228,+00.0432,+00.2983,+00.8954,-02.006,-00.460,-09.248,-00.027700,+00.452294,+00.300611*6B"
1710358852.0109134,-135.111,2.3,3.043,0.0389,0.2939,0.8914,-1.659,-0.544,-7.578,-0.209217,0.43196,0.192642,"$VNYMR,-135.111,+002.300,+003.043,+00.0389,+00.2939,+00.8914,-01.659,-00.544,-07.578,-00.209217,+00.431960,+00.192642*63"
1710358852.0545027,-134.956,2.679,2.672,0.0337,0.2951,0.8975,-0.782,0.069,-7.075,-0.269462,0.139329,0.024863,"$VNYMR,-134.956,+002.679,+002.672,+00.0337,+00.2951,+00.8975,-00.782,+00.069,-07.075,-00.269462,+00.139329,+00.024863*60"
1710358852.0943327,-134.981,2.503,2.415,0.0346,0.2907,0.8951,0.109,2.579,-8.731,-0.091405,-0.255634,0.046467,"$VNYMR,-134.981,+002.503,+002.415,+00.0346,+00.2907,+00.8951,+00.109,+02.579,-08.731,-00.091405,-00.255634,+00.046467*67"
1710358852.1333182,-134.721,2.072,2.406,0.041,0.2961,0.8978,-0.234,1.938,-10.65,0.009152,-0.252222,0.267655,"$VNYMR,-134.721,+002.072,+002.406,+00.0410,+00.2961,+00.8978,-00.234,+01.938,-10.650,+00.009152,-00.252222,+00.267655*65"
1710358852.1724036,-134.296,1.977,2.361,0.0421,0.2961,0.9004,-0.55,0.518,-10.754,-0.066941,0.105287,0.291592,"$VNYMR,-134.296,+001.977,+002.361,+00.0421,+00.2961,+00.9004,-00.550,+00.518,-10.754,-00.066941,+00.105287,+00.291592*67"
1710358852.2124224,-133.961,2.141,2.338,0.0419,0.2894,0.903,-0.064,-0.156,-8.14,0.032074,0.081434,0.202352,"$VNYMR,-133.961,+002.141,+002.338,+00.0419,+00.2894,+00.9030,-00.064,-00.156,-08.140,+00.032074,+00.081434,+00.202352*6D"
1710358852.2514956,-133.712,2.051,2.466,0.0461,0.2905,0.9007,0.156,-0.998,-7.747,0.1025,-0.092737,0.14607,"$VNYMR,-133.712,+002.051,+002.466,+00.0461,+00.2905,+00.9007,+00.156,-00.998,-07.747,+00.102500,-00.092737,+00.146070*6B"
1710358852.2908237,-133.533,1.918,2.499,0.0461,0.2916,0.8994,0.433,-0.38,-8.005,-0.053573,-0.053297,0.166924,"$VNYMR,-133.533,+001.918,+002.499,+00.0461,+00.2916,+00.8994,+00.433,-00.380,-08.005,-00.053573,-00.053297,+00.166924*69"
1710358852.331274,-133.301,1.914,2.391,0.0503,0.2915,0.8958,0.569,-0.494,-7.521,-0.067253,-0.004261,0.15494,"$VNYMR,-133.301,+001.914,+002.391,+00.0503,+00.2915,+00.8958,+00.569,-00.494,-07.521,-00.067253,-00.004261,+00.154940*61"
1710358852.3461277,-133.135,1.748,2.461,0.0515,0.3004,0.897,0.841,0.141,-8.161,0.129068,-0.153217,0.128451,"$VNYMR,-133.135,+001.748,+002.461,+00.0515,+00.3004,+00.8970,+00.841,+00.141,-08.161,+00.129068,-00.153217,+00.128451*6E"
1710358852.3968446,-132.999,1.454,2.696,0.0525,0.2981,0.8946,0.322,-0.12,-9.137,0.167444,-0.190695,0.071553,"$VNYMR,-132.999,+001.454,+002.696,+00.0525,+00.2981,+00.8946,+00.322,-00.120,-09.137,+00.167444,-00.190695,+00.071553*64"
1710358852.4373007,-132.936,1.418,2.852,0.0523,0.2892,0.896,0.154,-0.111,-9.286,0.048041,0.092338,0.015116,"$VNYMR,-132.936,+001.418,+002.852,+00.0523,+00.2892,+00.8960,+00.154,-00.111,-09.286,+00.048041,+00.092338,+00.015116*6B"
1710358852.47659,-133.022,1.649,2.867,0.0535,0.2937,0.8959,0.553,0.073,-8.547,0.00876,0.176901,-0.122,"$VNYMR,-133.022,+001.649,+002.867,+00.0535,+00.2937,+00.8959,+00.553,+00.073,-08.547,+00.008760,+00.176901,-00.122000*60"
1710358852.5162416,-133.249,1.851,2.891,0.0494,0.2982,0.8906,1.257,0.821,-7.72,0.037613,0.070787,-0.174854,"$VNYMR,-133.249,+001.851,+002.891,+00.0494,+00.2982,+00.8906,+01.257,+00.821,-07.720,+00.037613,+00.070787,-00.174854*6A"
1710358852.5560122,-133.428,1.827,2.934,0.0473,0.2982,0.8943,1.6,1.257,-8.717,0.044036,-0.082585,-0.076488,"$VNYMR,-133.428,+001.827,+002.934,+00.0473,+00.2982,+00.8943,+01.600,+01.257,-08.717,+00.044036,-00.082585,-00.076488*6B"
1710358852.59522,-133.465,1.681,3.068,0.0483,0.2949,0.8957,0.799,0.219,-10.445,0.120583,-0.093858,-0.011985,"$VNYMR,-133.465,+001.681,+003.068,+00.0483,+00.2949,+00.8957,+00.799,+00.219,-10.445,+00.120583,-00.093858,-00.011985*6E"
1710358852.6370337,-133.524,1.619,3.257,0.0483,0.296,0.8982,0.249,-0.272,-11.275,0.153838,0.01413,-0.039644,"$VNYMR,-133.524,+001.619,+003.257,+00.0483,+00.2960,+00.8982,+00.249,-00.272,-11.275,+00.153838,+00.014130,-00.039644*6E"
1710358852.67694,-133.651,1.703,3.445,0.0515,0.297,0.8958,-0.384,-0.83,-11.142,0.113319,0.069297,-0.144823,"$VNYMR,-133.651,+001.703,+003.445,+00.0515,+00.2970,+00.8958,-00.384,-00.830,-11.142,+00.113319,+00.069297,-00.144823*69"
1710358852.7292986,-139.38,1.07,2.598,0.0399,0.2928,0.9004,0.159,0.832,-8.943,0.071616,0.312194,-0.594839,"$VNYMR,-139.380,+001.070,+002.598,+00.0399,+00.2928,+00.9004,+00.159,+00.832,-08.943,+00.071616,+00.312194,-00.594839*64"
1710358852.769202,-139.984,1.157,2.759,0.037,0.304,0.895,0.037,2.081,-9.663,0.172673,-0.152395,-0.248024,"$VNYMR,-139.984,+001.157,+002.759,+00.0370,+00.3040,+00.8950,+00.037,+02.081,-09.663,+00.172673,-00.152395,-00.248024*6E"
1710358852.8101797,-140.079,0.722,3.085,0.039,0.2984,0.8977,-1.828,0.217,-11.739,0.246522,-0.404121,0.021115,"$VNYMR,-140.079,+000.722,+003.085,+00.0390,+00.2984,+00.8977,-01.828,+00.217,-11.739,+00.246522,-00.404121,+00.021115*6B"
1710358852.8500552,-140.019,0.216,3.454,0.0444,0.3049,0.8953,-3.298,-2.181,-13.446,0.211611,-0.249685,0.024143,"$VNYMR,-140.019,+000.216,+003.454,+00.0444,+00.3049,+00.8953,-03.298,-02.181,-13.446,+00.211611,-00.249685,+00.024143*65"
1710358852.8878088,-140.201,0.243,3.537,0.0454,0.3038,0.8916,-2.852,-2.177,-11.28,-0.04854,0.151965,-0.197677,"$VNYMR,-140.201,+000.243,+003.537,+00.0454,+00.3038,+00.8916,-02.852,-02.177,-11.280,-00.048540,+00.151965,-00.197677*6B"
1710358852.9245017,-140.454,0.481,3.375,0.0381,0.3051,0.8937,-1.991,-1.68,-8.997,-0.141689,0.134359,-0.1625,"$VNYMR,-140.454,+000.481,+003.375,+00.0381,+00.3051,+00.8937,-01.991,-01.680,-08.997,-00.141689,+00.134359,-00.162500*63"
1710358852.9611573,-140.675,0.55,3.161,0.036,0.304,0.8924,-1.378,-1.971,-8.446,-0.140036,-0.019144,-0.157947,"$VNYMR,-140.675,+000.550,+003.161,+00.0360,+00.3040,+00.8924,-01.378,-01.971,-08.446,-00.140036,-00.019144,-00.157947*64"
1710358852.9984083,-141.104,0.45,2.886,0.0401,0.3017,0.899,-1.097,-1.743,-9.038,-0.253643,-0.099456,-0.395158,"$VNYMR,-141.104,+000.450,+002.886,+00.0401,+00.3017,+00.8990,-01.097,-01.743,-09.038,-00.253643,-00.099456,-00.395158*69"
1710358853.036986,-141.782,0.406,2.391,0.0348,0.2951,0.8988,-0.178,1.262,-9.425,-0.348341,-0.047095,-0.463052,"$VNYMR,-141.782,+000.406,+002.391,+00.0348,+00.2951,+00.8988,-00.178,+01.262,-09.425,-00.348341,-00.047095,-00.463052*6E"
1710358853.0735996,-142.074,0.402,2.17,0.0326,0.2929,0.8936,0.224,1.52,-9.028,-0.039921,0.003274,-0.044266,"$VNYMR,-142.074,+000.402,+002.170,+00.0326,+00.2929,+00.8936,+00.224,+01.520,-09.028,-00.039921,+00.003274,-00.044266*6A"
1710358853.1102858,-142.02,0.37,2.165,0.0337,0.2973,0.8898,-0.344,-0.349,-8.548,0.006135,-0.048729,0.049329,"$VNYMR,-142.020,+000.370,+002.165,+00.0337,+00.2973,+00.8898,-00.344,-00.349,-08.548,+00.006135,-00.048729,+00.049329*68"
1710358853.1467764,-141.993,0.363,2.141,0.0368,0.2951,0.8989,-1.284,-2.047,-9.282,-0.016153,0.040259,-0.06062,"$VNYMR,-141.993,+000.363,+002.141,+00.0368,+00.2951,+00.8989,-01.284,-02.047,-09.282,-00.016153,+00.040259,-00.060620*6C"
1710358853.1835845,-142.243,0.364,2.123,0.0358,0.294,0.9001,-1.272,-1.472,-8.067,-0.023569,-0.081729,-0.235785,"$VNYMR,-142.243,+000.364,+002.123,+00.0358,+00.2940,+00.9001,-01.272,-01.472,-08.067,-00.023569,-00.081729,-00.235785*6F"
1710358853.2043927,-142.522,0.034,2.122,0.0412,0.3006,0.9003,-1.304,-1.363,-8.915,0.017808,-0.308484,-0.150468,"$VNYMR,-142.522,+000.034,+002.122,+00.0412,+00.3006,+00.9003,-01.304,-01.363,-08.915,+00.017808,-00.308484,-00.150468*6F"
1710358853.2247689,-142.823,-0.386,2.089,0.041,0.2939,0.8966,-1.2,-0.655,-10.329,-0.054035,-0.239662,-0.209938,"$VNYMR,-142.823,-000.386,+002.089,+00.0410,+00.2939,+00.8966,-01.200,-00.655,-10.329,-00.054035,-00.239662,-00.209938*63"
1710358853.2506747,-143.029,-0.644,2.039,0.042,0.2939,0.8966,-0.778,0.455,-10.54,0.000406,-0.156059,-0.078629,"$VNYMR,-143.029,-000.644,+002.039,+00.0420,+00.2939,+00.8966,-00.778,+00.455,-10.540,+00.000406,-00.156059,-00.078629*69"
1710358853.2767167,-143.065,-0.871,2.111,0.042,0.2928,0.8967,-0.741,0.248,-10.408,0.012683,-0.159227,-0.010011,"$VNYMR,-143.065,-000.871,+002.111,+00.0420,+00.2928,+00.8967,-00.741,+00.248,-10.408,+00.012683,-00.159227,-00.010011*65"
1710358853.3019872,-142.949,-0.921,1.983,0.0441,0.2927,0.8942,-0.741,0.258,-10.892,-0.132102,0.07599,0.138476,"$VNYMR,-142.949,-000.921,+001.983,+00.0441,+00.2927,+00.8942,-00.741,+00.258,-10.892,-00.132102,+00.075990,+00.138476*6B"
1710358853.3279915,-142.702,-0.787,1.803,0.0429,0.2861,0.9019,-0.713,0.036,-9.56,-0.078809,0.071605,0.196827,"$VNYMR,-142.702,-000.787,+001.803,+00.0429,+00.2861,+00.9019,-00.713,+00.036,-09.560,-00.078809,+00.071605,+00.196827*69"
1710358853.3532264,-142.338,-0.894,1.83,0.0461,0.2894,0.902,-1.443,-0.02,-10.643,0.086693,-0.094613,0.319228,"$VNYMR,-142.338,-000.894,+001.830,+00.0461,+00.2894,+00.9020,-01.443,-00.020,-10.643,+00.086693,-00.094613,+00.319228*69"
1710358853.378456,-141.882,-0.787,1.857,0.0493,0.2937,0.8983,-2.315,-1.657,-10.764,-0.077053,0.215632,0.253021,"$VNYMR,-141.882,-000.787,+001.857,+00.0493,+00.2937,+00.8983,-02.315,-01.657,-10.764,-00.077053,+00.215632,+00.253021*64"
1710358853.4052029,-141.623,-0.402,1.577,0.043,0.2916,0.898,-1.955,-0.701,-9.428,-0.184376,0.26083,0.146026,"$VNYMR,-141.623,-000.402,+001.577,+00.0430,+00.2916,+00.8980,-01.955,-00.701,-09.428,-00.184376,+00.260830,+00.146026*63"
1710358853.4305878,-141.438,-0.121,1.486,0.0408,0.2861,0.8942,-1.634,-0.774,-8.887,-0.000462,0.17654,0.089818,"$VNYMR,-141.438,-000.121,+001.486,+00.0408,+00.2861,+00.8942,-01.634,-00.774,-08.887,-00.000462,+00.176540,+00.089818*60"
1710358853.4563346,-141.444,0.134,1.418,0.0429,0.2883,0.9006,-0.559,-0.445,-8.151,-0.099007,0.180745,-0.098146,"$VNYMR,-141.444,+000.134,+001.418,+00.0429,+00.2883,+00.9006,-00.559,-00.445,-08.151,-00.099007,+00.180745,-00.098146*6E"
1710358853.4817772,-141.552,0.128,1.263,0.041,0.2939,0.9029,0.37,2.182,-8.52,-0.028881,-0.129315,0.019933,"$VNYMR,-141.552,+000.128,+001.263,+00.0410,+00.2939,+00.9029,+00.370,+02.182,-08.520,-00.028881,-00.129315,+00.019933*66"
1710358853.5074365,-141.284,-0.343,1.362,0.0449,0.2827,0.8995,-0.283,1.863,-10.528,0.141141,-0.3974,0.32755,"$VNYMR,-141.284,-000.343,+001.362,+00.0449,+00.2827,+00.8995,-00.283,+01.863,-10.528,+00.141141,-00.397400,+00.327550*6F"
1710358853.5332053,-140.867,-0.985,1.691,0.0524,0.2915,0.8972,-1.459,-0.694,-12.772,0.253117,-0.409692,0.210885,"$VNYMR,-140.867,-000.985,+001.691,+00.0524,+00.2915,+00.8972,-01.459,-00.694,-12.772,+00.253117,-00.409692,+00.210885*67"
1710358853.5588374,-140.835,-1.26,1.933,0.0545,0.2925,0.8947,-1.21,0.184,-12.4,0.100197,-0.046393,-0.041825,"$VNYMR,-140.835,-001.260,+001.933,+00.0545,+00.2925,+00.8947,-01.210,+00.184,-12.400,+00.100197,-00.046393,-00.041825*65"
1710358853.5842824,-140.768,-1.165,2.047,0.0566,0.2936,0.8974,-0.566,0.687,-10.996,0.102754,0.126457,0.132091,"$VNYMR,-140.768,-001.165,+002.047,+00.0566,+00.2936,+00.8974,-00.566,+00.687,-10.996,+00.102754,+00.126457,+00.132091*6C"
1710358853.613866,-140.566,-0.986,2.22,0.0534,0.2903,0.896,-0.706,-0.565,-9.653,0.136241,0.13578,0.099169,"$VNYMR,-140.566,-000.986,+002.220,+00.0534,+00.2903,+00.8960,-00.706,-00.565,-09.653,+00.136241,+00.135780,+00.099169*6B"
1710358853.6398199,-140.514,-0.788,2.423,0.0524,0.2926,0.8946,-0.782,-0.82,-8.596,0.156775,0.134538,-0.035427,"$VNYMR,-140.514,-000.788,+002.423,+00.0524,+00.2926,+00.8946,-00.782,-00.820,-08.596,+00.156775,+00.134538,-00.035427*69"
1710358853.6875424,-140.678,-0.661,2.636,0.0515,0.297,0.8945,-0.866,-0.342,-8.611,0.089251,0.077387,-0.148851,"$VNYMR,-140.678,-000.661,+002.636,+00.0515,+00.2970,+00.8945,-00.866,-00.342,-08.611,+00.089251,+00.077387,-00.148851*66"
1710358853.702627,-140.852,-0.373,2.669,0.0496,0.3048,0.8918,-0.552,0.735,-8.602,0.027727,0.242276,-0.073263,"$VNYMR,-140.852,-000.373,+002.669,+00.0496,+00.3048,+00.8918,-00.552,+00.735,-08.602,+00.027727,+00.242276,-00.073263*6E"
1710358853.7296455,-140.947,-0.178,2.724,0.0463,0.2971,0.8955,-0.811,-0.136,-7.967,0.05938,0.033114,-0.101023,"$VNYMR,-140.947,-000.178,+002.724,+00.0463,+00.2971,+00.8955,-00.811,-00.136,-07.967,+00.059380,+00.033114,-00.101023*60"
1710358853.7550876,-141.195,-0.405,2.888,0.0472,0.2949,0.8956,-1.363,0.722,-9.667,0.12203,-0.2434,-0.158025,"$VNYMR,-141.195,-000.405,+002.888,+00.0472,+00.2949,+00.8956,-01.363,+00.722,-09.667,+00.122030,-00.243400,-00.158025*6F"
1710358853.7818553,-141.373,-0.738,3.005,0.0494,0.2982,0.8931,-1.706,1.219,-11.372,0.064484,-0.201921,-0.075551,"$VNYMR,-141.373,-000.738,+003.005,+00.0494,+00.2982,+00.8931,-01.706,+01.219,-11.372,+00.064484,-00.201921,-00.075551*61"
1710358853.8067164,-141.328,-0.863,3.097,0.0484,0.3015,0.8905,-1.761,0.471,-11.665,0.05017,0.019787,0.078814,"$VNYMR,-141.328,-000.863,+003.097,+00.0484,+00.3015,+00.8905,-01.761,+00.471,-11.665,+00.050170,+00.019787,+00.078814*6F"
1710358853.8320818,-141.231,-0.553,3.023,0.0504,0.2959,0.892,-1.349,-0.819,-9.876,-0.090843,0.300965,-0.004393,"$VNYMR,-141.231,-000.553,+003.023,+00.0504,+00.2959,+00.8920,-01.349,-00.819,-09.876,-00.090843,+00.300965,-00.004393*65"
1710358853.8578916,-141.273,-0.157,2.914,0.0463,0.3016,0.8917,-0.416,0.099,-7.998,-0.041597,0.218041,-0.039062,"$VNYMR,-141.273,-000.157,+002.914,+00.0463,+00.3016,+00.8917,-00.416,+00.099,-07.998,-00.041597,+00.218041,-00.039062*61"
1710358853.8838737,-141.287,-0.106,2.916,0.0453,0.3005,0.8878,0.066,0.662,-8.432,0.022475,-0.075277,0.008074,"$VNYMR,-141.287,-000.106,+002.916,+00.0453,+00.3005,+00.8878,+00.066,+00.662,-08.432,+00.022475,-00.075277,+00.008074*65"
1710358853.9089255,-141.104,-0.246,2.906,0.0451,0.2938,0.893,0.057,1.13,-10.204,-0.01844,-0.078899,0.193882,"$VNYMR,-141.104,-000.246,+002.906,+00.0451,+00.2938,+00.8930,+00.057,+01.130,-10.204,-00.018440,-00.078899,+00.193882*67"
1710358853.9348538,-140.643,-0.289,2.928,0.0504,0.2971,0.8957,-0.318,0.791,-10.568,0.053584,0.013077,0.383951,"$VNYMR,-140.643,-000.289,+002.928,+00.0504,+00.2971,+00.8957,-00.318,+00.791,-10.568,+00.053584,+00.013077,+00.383951*60"
1710358853.960205,-140.059,-0.24,3.05,0.0483,0.296,0.8918,-0.756,-0.282,-10.446,0.092775,0.082247,0.398331,"$VNYMR,-140.059,-000.240,+003.050,+00.0483,+00.2960,+00.8918,-00.756,-00.282,-10.446,+00.092775,+00.082247,+00.398331*66"
1710358853.9859722,-139.546,-0.089,3.133,0.0535,0.297,0.8883,-0.743,-0.333,-9.442,0.027322,0.102501,0.333695,"$VNYMR,-139.546,-000.089,+003.133,+00.0535,+00.2970,+00.8883,-00.743,-00.333,-09.442,+00.027322,+00.102501,+00.333695*63"
1710358854.011099,-139.095,-0.059,3.181,0.0515,0.2993,0.892,-0.624,-0.372,-9.12,0.028803,-0.024992,0.290574,"$VNYMR,-139.095,-000.059,+003.181,+00.0515,+00.2993,+00.8920,-00.624,-00.372,-09.120,+00.028803,-00.024992,+00.290574*69"
1710358854.0379186,-138.659,-0.099,3.136,0.0545,0.2948,0.8934,-0.452,-0.748,-10.146,-0.054017,0.043712,0.293372,"$VNYMR,-138.659,-000.099,+003.136,+00.0545,+00.2948,+00.8934,-00.452,-00.748,-10.146,-00.054017,+00.043712,+00.293372*6C"
1710358854.0633516,-138.298,-0.056,3.091,0.0557,0.2981,0.896,-0.193,-1.056,-9.804,0.010099,0.035196,0.21745,"$VNYMR,-138.298,-000.056,+003.091,+00.0557,+00.2981,+00.8960,-00.193,-01.056,-09.804,+00.010099,+00.035196,+00.217450*6B"
1710358854.0892923,-138.019,-0.072,3.134,0.0588,0.2991,0.8923,0.007,-0.898,-9.338,0.01203,-0.037099,0.193984,"$VNYMR,-138.019,-000.072,+003.134,+00.0588,+00.2991,+00.8923,+00.007,-00.898,-09.338,+00.012030,-00.037099,+00.193984*69"
1710358854.1143641,-137.786,-0.163,3.129,0.0588,0.2991,0.8923,-0.307,-1.303,-9.406,-0.033531,-0.070715,0.133993,"$VNYMR,-137.786,-000.163,+003.129,+00.0588,+00.2991,+00.8923,-00.307,-01.303,-09.406,-00.033531,-00.070715,+00.133993*60"
1710358854.1399457,-137.673,-0.19,3.011,0.0556,0.2981,0.8833,-0.469,-0.859,-9.839,-0.104834,0.030656,0.052565,"$VNYMR,-137.673,-000.190,+003.011,+00.0556,+00.2981,+00.8833,-00.469,-00.859,-09.839,-00.104834,+00.030656,+00.052565*6F"
1710358854.165888,-137.642,-0.186,2.903,0.0619,0.298,0.8925,-0.307,-0.19,-9.552,-0.039914,-0.02787,0.004272,"$VNYMR,-137.642,-000.186,+002.903,+00.0619,+00.2980,+00.8925,-00.307,-00.190,-09.552,-00.039914,-00.027870,+00.004272*69"
1710358854.1918485,-137.534,-0.269,2.846,0.0608,0.298,0.8924,-0.21,0.958,-10.3,-0.059131,-0.0451,0.154266,"$VNYMR,-137.534,-000.269,+002.846,+00.0608,+00.2980,+00.8924,-00.210,+00.958,-10.300,-00.059131,-00.045100,+00.154266*6E"
1710358854.2171228,-137.185,-0.196,2.74,0.0619,0.2969,0.8976,-0.48,0.074,-10.029,-0.048211,0.087607,0.248793,"$VNYMR,-137.185,-000.196,+002.740,+00.0619,+00.2969,+00.8976,-00.480,+00.074,-10.029,-00.048211,+00.087607,+00.248793*62"
1710358854.2452428,-136.878,-0.181,2.78,0.0628,0.2913,0.8926,-0.477,0.177,-9.631,0.083995,-0.026026,0.202962,"$VNYMR,-136.878,-000.181,+002.780,+00.0628,+00.2913,+00.8926,-00.477,+00.177,-09.631,+00.083995,-00.026026,+00.202962*65"
1710358854.2696295,-136.564,-0.318,2.952,0.0651,0.3001,0.8926,-0.446,1.268,-10.002,0.113393,-0.101067,0.27844,"$VNYMR,-136.564,-000.318,+002.952,+00.0651,+00.3001,+00.8926,-00.446,+01.268,-10.002,+00.113393,-00.101067,+00.278440*66"
1710358854.2970905,-135.932,-0.347,2.986,0.0681,0.2956,0.8966,-0.624,0.965,-10.95,0.024259,0.092543,0.525529,"$VNYMR,-135.932,-000.347,+002.986,+00.0681,+00.2956,+00.8966,-00.624,+00.965,-10.950,+00.024259,+00.092543,+00.525529*68"
1710358854.3204124,-135.138,-0.203,3.117,0.0701,0.2923,0.893,-0.531,0.499,-9.708,0.123511,0.129107,0.537993,"$VNYMR,-135.138,-000.203,+003.117,+00.0701,+00.2923,+00.8930,-00.531,+00.499,-09.708,+00.123511,+00.129107,+00.537993*66"
1710358854.3456619,-134.196,-0.058,3.32,0.0722,0.2933,0.8931,-0.601,0.453,-9.805,0.142325,0.178711,0.715295,"$VNYMR,-134.196,-000.058,+003.320,+00.0722,+00.2933,+00.8931,-00.601,+00.453,-09.805,+00.142325,+00.178711,+00.715295*60"
1710358854.3730078,-133.181,0.129,3.443,0.0744,0.3,0.8918,-0.445,0.126,-8.49,0.014299,0.139622,0.670448,"$VNYMR,-133.181,+000.129,+003.443,+00.0744,+00.3000,+00.8918,-00.445,+00.126,-08.490,+00.014299,+00.139622,+00.670448*61"
1710358854.4270263,-132.139,0.141,3.443,0.0765,0.2988,0.8907,-0.309,0.667,-9.0,0.017533,0.009762,0.77076,"$VNYMR,-132.139,+000.141,+003.443,+00.0765,+00.2988,+00.8907,-00.309,+00.667,-09.000,+00.017533,+00.009762,+00.770760*62"
1710358854.4659069,-131.008,0.053,3.475,0.0805,0.2921,0.8884,-0.484,0.522,-9.18,0.046974,-0.035879,0.804348,"$VNYMR,-131.008,+000.053,+003.475,+00.0805,+00.2921,+00.8884,-00.484,+00.522,-09.180,+00.046974,-00.035879,+00.804348*69"
1710358854.4813123,-129.785,-0.119,3.599,0.086,0.3031,0.8936,-0.785,-0.063,-9.996,0.09685,-0.04638,0.879629,"$VNYMR,-129.785,-000.119,+003.599,+00.0860,+00.3031,+00.8936,-00.785,-00.063,-09.996,+00.096850,-00.046380,+00.879629*6A"
1710358854.50692,-128.525,-0.208,3.662,0.0888,0.2897,0.894,-0.696,0.308,-9.8,0.014485,0.011864,0.907772,"$VNYMR,-128.525,-000.208,+003.662,+00.0888,+00.2897,+00.8940,-00.696,+00.308,-09.800,+00.014485,+00.011864,+00.907772*6C"
1710358854.532864,-127.108,-0.289,3.656,0.098,0.2873,0.8894,-0.672,0.021,-10.023,-0.012895,0.017509,1.039971,"$VNYMR,-127.108,-000.289,+003.656,+00.0980,+00.2873,+00.8894,-00.672,+00.021,-10.023,-00.012895,+00.017509,+01.039971*6B"
1710358854.5586917,-125.635,-0.361,3.643,0.1042,0.2839,0.8847,-0.439,0.413,-9.994,0.029567,0.001074,1.046901,"$VNYMR,-125.635,-000.361,+003.643,+00.1042,+00.2839,+00.8847,-00.439,+00.413,-09.994,+00.029567,+00.001074,+01.046901*69"
1710358854.5845695,-123.987,-0.409,3.716,0.1106,0.2882,0.8913,-0.455,0.587,-9.924,0.073784,0.07592,1.221415,"$VNYMR,-123.987,-000.409,+003.716,+00.1106,+00.2882,+00.8913,-00.455,+00.587,-09.924,+00.073784,+00.075920,+01.221415*6D"
1710358854.6108773,-122.164,-0.465,3.8,0.1156,0.2826,0.8916,-0.949,0.612,-10.2,0.057703,0.049934,1.327618,"$VNYMR,-122.164,-000.465,+003.800,+00.1156,+00.2826,+00.8916,-00.949,+00.612,-10.200,+00.057703,+00.049934,+01.327618*64"
1710358854.6355996,-120.187,-0.366,3.781,0.1197,0.2769,0.8919,-1.346,-0.573,-10.124,-0.051706,0.225857,1.352784,"$VNYMR,-120.187,-000.366,+003.781,+00.1197,+00.2769,+00.8919,-01.346,-00.573,-10.124,-00.051706,+00.225857,+01.352784*63"
1710358854.6612656,-118.362,-0.096,3.676,0.1217,0.2736,0.8933,-0.95,-0.478,-8.951,-0.071016,0.26058,1.18908,"$VNYMR,-118.362,-000.096,+003.676,+00.1217,+00.2736,+00.8933,-00.950,-00.478,-08.951,-00.071016,+00.260580,+01.189080*6D"
1710358854.6878035,-116.77,0.037,3.559,0.1268,0.2701,0.8962,-0.073,-0.23,-8.5,-0.130824,0.082482,1.04162,"$VNYMR,-116.770,+000.037,+003.559,+00.1268,+00.2701,+00.8962,-00.073,-00.230,-08.500,-00.130824,+00.082482,+01.041620*6C"
1710358854.712307,-115.384,-0.134,3.42,0.135,0.2644,0.8903,1.19,2.521,-9.44,-0.016141,-0.168368,1.011691,"$VNYMR,-115.384,-000.134,+003.420,+00.1350,+00.2644,+00.8903,+01.190,+02.521,-09.440,-00.016141,-00.168368,+01.011691*6A"
1710358854.7385538,-113.645,-0.648,3.567,0.141,0.2577,0.892,0.89,3.391,-11.831,0.180028,-0.276573,1.416108,"$VNYMR,-113.645,-000.648,+003.567,+00.1410,+00.2577,+00.8920,+00.890,+03.391,-11.831,+00.180028,-00.276573,+01.416108*6E"
1710358854.7641392,-111.386,-0.971,3.752,0.1514,0.2542,0.8913,-0.763,0.296,-13.113,0.108061,0.044318,1.619919,"$VNYMR,-111.386,-000.971,+003.752,+00.1514,+00.2542,+00.8913,-00.763,+00.296,-13.113,+00.108061,+00.044318,+01.619919*69"
1710358854.7898188,-109.235,-0.668,3.781,0.1545,0.2552,0.8927,-1.233,-0.889,-10.607,0.02024,0.435405,1.382698,"$VNYMR,-109.235,-000.668,+003.781,+00.1545,+00.2552,+00.8927,-01.233,-00.889,-10.607,+00.020240,+00.435405,+01.382698*62"
1710358854.8154025,-107.293,-0.159,3.78,0.1585,0.2474,0.8968,-0.968,-0.348,-8.633,0.006725,0.439964,1.315088,"$VNYMR,-107.293,-000.159,+003.780,+00.1585,+00.2474,+00.8968,-00.968,-00.348,-08.633,+00.006725,+00.439964,+01.315088*67"
1710358854.841525,-105.395,0.306,3.71,0.1573,0.2418,0.8969,-0.569,-0.576,-7.982,-0.093275,0.39247,1.267097,"$VNYMR,-105.395,+000.306,+003.710,+00.1573,+00.2418,+00.8969,-00.569,-00.576,-07.982,-00.093275,+00.392470,+01.267097*65"
1710358854.8671227,-103.673,0.486,3.653,0.1584,0.244,0.8969,-0.072,0.833,-7.999,0.014908,0.048449,1.185713,"$VNYMR,-103.673,+000.486,+003.653,+00.1584,+00.2440,+00.8969,-00.072,+00.833,-07.999,+00.014908,+00.048449,+01.185713*6F"
1710358854.8923817,-101.841,0.25,3.781,0.1656,0.2395,0.8948,-0.145,1.701,-10.165,0.104081,-0.098072,1.399352,"$VNYMR,-101.841,+000.250,+003.781,+00.1656,+00.2395,+00.8948,-00.145,+01.701,-10.165,+00.104081,-00.098072,+01.399352*67"
1710358854.9183023,-99.667,0.118,3.86,0.1704,0.2238,0.8965,-1.073,0.311,-10.89,0.020032,0.088372,1.556832,"$VNYMR,-099.667,+000.118,+003.860,+00.1704,+00.2238,+00.8965,-01.073,+00.311,-10.890,+00.020032,+00.088372,+01.556832*6C"
1710358854.9438045,-97.398,0.232,3.905,0.1748,0.2315,0.9004,-1.478,0.522,-10.541,0.024954,0.270224,1.621751,"$VNYMR,-097.398,+000.232,+003.905,+00.1748,+00.2315,+00.9004,-01.478,+00.522,-10.541,+00.024954,+00.270224,+01.621751*6C"
1710358854.969915,-94.932,0.524,3.885,0.1763,0.2104,0.897,-1.389,-0.302,-9.023,-0.058459,0.34792,1.756075,"$VNYMR,-094.932,+000.524,+003.885,+00.1763,+00.2104,+00.8970,-01.389,-00.302,-09.023,-00.058459,+00.347920,+01.756075*69"
1710358854.995467,-92.409,0.81,3.829,0.1772,0.2037,0.8997,-0.952,-1.787,-7.707,-0.045452,0.255731,1.702551,"$VNYMR,-092.409,+000.810,+003.829,+00.1772,+00.2037,+00.8997,-00.952,-01.787,-07.707,-00.045452,+00.255731,+01.702551*6D"
1710358855.0216322,-90.066,0.673,3.809,0.1832,0.1936,0.8976,-0.721,-1.085,-8.107,-0.010163,-0.178206,1.640771,"$VNYMR,-090.066,+000.673,+003.809,+00.1832,+00.1936,+00.8976,-00.721,-01.085,-08.107,-00.010163,-00.178206,+01.640771*69"
1710358855.0482404,-87.717,0.033,3.934,0.1914,0.1901,0.8994,-1.217,-1.418,-10.752,0.129296,-0.395502,1.678934,"$VNYMR,-087.717,+000.033,+003.934,+00.1914,+00.1901,+00.8994,-01.217,-01.418,-10.752,+00.129296,-00.395502,+01.678934*62"
1710358855.0738502,-85.421,-0.548,4.078,0.2007,0.1855,0.8999,-1.323,-1.909,-12.42,0.063878,-0.184176,1.573436,"$VNYMR,-085.421,-000.548,+004.078,+00.2007,+00.1855,+00.8999,-01.323,-01.909,-12.420,+00.063878,-00.184176,+01.573436*62"
1710358855.127191,-83.238,-0.659,3.98,0.2067,0.1765,0.8965,-0.5,-1.135,-11.346,-0.110489,0.119923,1.509283,"$VNYMR,-083.238,-000.659,+003.980,+00.2067,+00.1765,+00.8965,-00.500,-01.135,-11.346,-00.110489,+00.119923,+01.509283*62"
1710358855.1696696,-81.095,-0.615,3.76,0.2075,0.1665,0.8993,-0.214,-1.201,-10.186,-0.15767,0.119822,1.450367,"$VNYMR,-081.095,-000.615,+003.760,+00.2075,+00.1665,+00.8993,-00.214,-01.201,-10.186,-00.157670,+00.119822,+01.450367*6E"
1710358855.21384,-79.019,-0.658,3.554,0.2084,0.1609,0.8969,-0.048,-0.284,-9.553,-0.104844,0.02251,1.47025,"$VNYMR,-079.019,-000.658,+003.554,+00.2084,+00.1609,+00.8969,-00.048,-00.284,-09.553,-00.104844,+00.022510,+01.470250*6E"
1710358855.236598,-76.881,-0.795,3.386,0.2164,0.1464,0.8975,-0.398,-0.701,-10.094,-0.092235,0.011638,1.488817,"$VNYMR,-076.881,-000.795,+003.386,+00.2164,+00.1464,+00.8975,-00.398,-00.701,-10.094,-00.092235,+00.011638,+01.488817*6F"
1710358855.2556574,-74.705,-0.794,3.184,0.2141,0.1386,0.8988,-0.6,-0.667,-10.371,-0.14347,0.162181,1.53973,"$VNYMR,-074.705,-000.794,+003.184,+00.2141,+00.1386,+00.8988,-00.600,-00.667,-10.371,-00.143470,+00.162181,+01.539730*67"
1710358855.2820795,-72.505,-0.608,2.963,0.2148,0.1253,0.9041,-0.582,-1.538,-8.696,-0.120953,0.167184,1.471927,"$VNYMR,-072.505,-000.608,+002.963,+00.2148,+00.1253,+00.9041,-00.582,-01.538,-08.696,-00.120953,+00.167184,+01.471927*62"
1710358855.30788,-70.407,-0.644,2.888,0.2167,0.1175,0.8992,-0.928,-1.497,-8.51,0.000789,-0.049027,1.462462,"$VNYMR,-070.407,-000.644,+002.888,+00.2167,+00.1175,+00.8992,-00.928,-01.497,-08.510,+00.000789,-00.049027,+01.462462*67"
1710358855.3339894,-68.473,-0.744,2.85,0.2154,0.1097,0.8968,-1.199,-1.931,-9.999,-0.03241,0.06255,1.263766,"$VNYMR,-068.473,-000.744,+002.850,+00.2154,+00.1097,+00.8968,-01.199,-01.931,-09.999,-00.032410,+00.062550,+01.263766*61"
1710358855.3643413,-66.694,-0.603,2.723,0.2184,0.103,0.9021,-0.428,-0.33,-9.641,-0.100953,0.204905,1.274145,"$VNYMR,-066.694,-000.603,+002.723,+00.2184,+00.1030,+00.9021,-00.428,-00.330,-09.641,-00.100953,+00.204905,+01.274145*63"
1710358855.3860002,-64.749,-0.447,2.604,0.2151,0.0953,0.9008,-0.242,-0.757,-8.721,-0.048889,0.099959,1.368949,"$VNYMR,-064.749,-000.447,+002.604,+00.2151,+00.0953,+00.9008,-00.242,-00.757,-08.721,-00.048889,+00.099959,+01.368949*6D"
1710358855.4107609,-62.808,-0.58,2.562,0.216,0.0886,0.9035,-0.552,-1.622,-9.331,0.012583,-0.110819,1.327374,"$VNYMR,-062.808,-000.580,+002.562,+00.2160,+00.0886,+00.9035,-00.552,-01.622,-09.331,+00.012583,-00.110819,+01.327374*6F"
1710358855.4359703,-61.11,-0.912,2.625,0.2189,0.0797,0.9012,-1.012,-1.84,-10.173,0.084769,-0.198057,1.096088,"$VNYMR,-061.110,-000.912,+002.625,+00.2189,+00.0797,+00.9012,-01.012,-01.840,-10.173,+00.084769,-00.198057,+01.096088*62"
1710358855.4630857,-59.67,-1.242,2.709,0.2239,0.074,0.9003,-0.82,-0.959,-10.575,0.045871,-0.138269,0.983338,"$VNYMR,-059.670,-001.242,+002.709,+00.2239,+00.0740,+00.9003,-00.820,-00.959,-10.575,+00.045871,-00.138269,+00.983338*62"
1710358855.4884615,-58.37,-1.354,2.688,0.2221,0.0841,0.8988,-0.138,-0.939,-10.303,0.001494,0.04033,0.845864,"$VNYMR,-058.370,-001.354,+002.688,+00.2221,+00.0841,+00.8988,-00.138,-00.939,-10.303,+00.001494,+00.040330,+00.845864*6E"
1710358855.514065,-57.294,-1.419,2.749,0.2205,0.0641,0.8965,0.57,-0.147,-9.605,0.111128,-0.050729,0.723316,"$VNYMR,-057.294,-001.419,+002.749,+00.2205,+00.0641,+00.8965,+00.570,-00.147,-09.605,+00.111128,-00.050729,+00.723316*6F"
1710358855.5388358,-56.255,-1.644,2.943,0.2226,0.0641,0.8991,0.356,-0.198,-10.115,0.14408,-0.15483,0.745094,"$VNYMR,-056.255,-001.644,+002.943,+00.2226,+00.0641,+00.8991,+00.356,-00.198,-10.115,+00.144080,-00.154830,+00.745094*61"
1710358855.5644674,-55.228,-1.832,3.027,0.2257,0.0618,0.8993,-0.185,-1.528,-10.787,0.050741,-0.077382,0.626779,"$VNYMR,-055.228,-001.832,+003.027,+00.2257,+00.0618,+00.8993,-00.185,-01.528,-10.787,+00.050741,-00.077382,+00.626779*60"
1710358855.5903049,-54.458,-1.934,3.14,0.2246,0.0585,0.8955,-0.115,-0.932,-10.753,0.119361,-0.028978,0.496705,"$VNYMR,-054.458,-001.934,+003.140,+00.2246,+00.0585,+00.8955,-00.115,-00.932,-10.753,+00.119361,-00.028978,+00.496705*61"
1710358855.6163738,-53.868,-1.966,3.255,0.2225,0.0596,0.9017,-0.158,-0.777,-11.367,0.045324,0.064754,0.359113,"$VNYMR,-053.868,-001.966,+003.255,+00.2225,+00.0596,+00.9017,-00.158,-00.777,-11.367,+00.045324,+00.064754,+00.359113*66"
1710358855.641766,-53.437,-1.712,3.223,0.2214,0.0563,0.8954,0.416,0.756,-10.023,-0.046937,0.228487,0.289571,"$VNYMR,-053.437,-001.712,+003.223,+00.2214,+00.0563,+00.8954,+00.416,+00.756,-10.023,-00.046937,+00.228487,+00.289571*63"
1710358855.667373,-52.935,-1.467,3.217,0.2194,0.0586,0.9054,0.801,1.141,-8.743,0.076274,0.126551,0.364582,"$VNYMR,-052.935,-001.467,+003.217,+00.2194,+00.0586,+00.9054,+00.801,+01.141,-08.743,+00.076274,+00.126551,+00.364582*60"
1710358855.6935084,-52.261,-1.409,3.305,0.2185,0.063,0.904,0.671,0.402,-8.605,0.102904,0.031105,0.497901,"$VNYMR,-052.261,-001.409,+003.305,+00.2185,+00.0630,+00.9040,+00.671,+00.402,-08.605,+00.102904,+00.031105,+00.497901*62"
1710358855.7184489,-51.618,-1.468,3.541,0.2193,0.0552,0.9016,0.368,-0.022,-9.09,0.205422,-0.008043,0.446914,"$VNYMR,-051.618,-001.468,+003.541,+00.2193,+00.0552,+00.9016,+00.368,-00.022,-09.090,+00.205422,-00.008043,+00.446914*65"
1710358855.7446656,-50.983,-1.445,3.855,0.2213,0.0519,0.9005,0.215,-0.158,-8.991,0.267886,0.069268,0.469851,"$VNYMR,-050.983,-001.445,+003.855,+00.2213,+00.0519,+00.9005,+00.215,-00.158,-08.991,+00.267886,+00.069268,+00.469851*67"
1710358855.7702847,-50.377,-1.404,4.169,0.215,0.052,0.8976,-0.157,-1.186,-8.524,0.142591,0.047114,0.385446,"$VNYMR,-050.377,-001.404,+004.169,+00.2150,+00.0520,+00.8976,-00.157,-01.186,-08.524,+00.142591,+00.047114,+00.385446*67"
1710358855.7953725,-49.905,-1.496,4.333,0.2173,0.0586,0.904,-0.198,-0.378,-8.831,0.137971,-0.11907,0.336198,"$VNYMR,-049.905,-001.496,+004.333,+00.2173,+00.0586,+00.9040,-00.198,-00.378,-08.831,+00.137971,-00.119070,+00.336198*6F"
1710358855.8218238,-49.374,-1.955,4.533,0.2203,0.0541,0.9004,-0.821,-0.264,-11.13,0.131094,-0.341744,0.436198,"$VNYMR,-049.374,-001.955,+004.533,+00.2203,+00.0541,+00.9004,-00.821,-00.264,-11.130,+00.131094,-00.341744,+00.436198*63"
1710358855.8471065,-48.826,-2.348,4.578,0.2222,0.0485,0.8993,-1.584,-0.841,-12.898,0.006514,-0.14458,0.352297,"$VNYMR,-048.826,-002.348,+004.578,+00.2222,+00.0485,+00.8993,-01.584,-00.841,-12.898,+00.006514,-00.144580,+00.352297*62"
1710358855.874071,-48.37,-2.307,4.574,0.2222,0.0485,0.8955,-1.038,0.019,-12.13,0.007669,0.212885,0.33319,"$VNYMR,-048.370,-002.307,+004.574,+00.2222,+00.0485,+00.8955,-01.038,+00.019,-12.130,+00.007669,+00.212885,+00.333190*68"
1710358855.8993335,-47.788,-1.783,4.398,0.2191,0.0475,0.9043,-0.084,-1.321,-9.619,-0.170018,0.494481,0.360956,"$VNYMR,-047.788,-001.783,+004.398,+00.2191,+00.0475,+00.9043,-00.084,-01.321,-09.619,-00.170018,+00.494481,+00.360956*6C"
1710358855.924434,-47.411,-1.15,4.112,0.2149,0.0442,0.9054,0.935,-1.289,-7.343,-0.200158,0.393147,0.170907,"$VNYMR,-047.411,-001.150,+004.112,+00.2149,+00.0442,+00.9054,+00.935,-01.289,-07.343,-00.200158,+00.393147,+00.170907*6B"
1710358855.9505231,-47.219,-0.951,3.901,0.2107,0.0432,0.9077,1.439,-0.366,-7.302,-0.077083,-0.042957,0.12953,"$VNYMR,-047.219,-000.951,+003.901,+00.2107,+00.0432,+00.9077,+01.439,-00.366,-07.302,-00.077083,-00.042957,+00.129530*69"
1710358855.9762034,-47.004,-1.275,3.942,0.2137,0.0376,0.9092,0.677,-0.36,-10.174,0.077425,-0.254019,0.175655,"$VNYMR,-047.004,-001.275,+003.942,+00.2137,+00.0376,+00.9092,+00.677,-00.360,-10.174,+00.077425,-00.254019,+00.175655*68"
1710358856.0016131,-46.728,-1.449,3.927,0.2115,0.0365,0.9028,-0.0,-0.098,-11.521,-0.058628,0.003923,0.212338,"$VNYMR,-046.728,-001.449,+003.927,+00.2115,+00.0365,+00.9028,-00.000,-00.098,-11.521,-00.058628,+00.003923,+00.212338*66"
1710358856.0275493,-46.27,-1.292,3.821,0.2157,0.0364,0.9017,-0.397,-0.944,-10.561,-0.064206,0.170758,0.342871,"$VNYMR,-046.270,-001.292,+003.821,+00.2157,+00.0364,+00.9017,-00.397,-00.944,-10.561,-00.064206,+00.170758,+00.342871*60"
1710358856.0531054,-45.862,-0.994,3.68,0.2126,0.0342,0.9067,-0.621,-2.141,-9.407,-0.107966,0.256218,0.188097,"$VNYMR,-045.862,-000.994,+003.680,+00.2126,+00.0342,+00.9067,-00.621,-02.141,-09.407,-00.107966,+00.256218,+00.188097*63"
1710358856.0797462,-45.788,-0.729,3.44,0.2063,0.0344,0.9076,-0.247,-1.954,-7.873,-0.238019,0.117881,-0.060843,"$VNYMR,-045.788,-000.729,+003.440,+00.2063,+00.0344,+00.9076,-00.247,-01.954,-07.873,-00.238019,+00.117881,-00.060843*60"
1710358856.104704,-45.994,-0.747,3.097,0.2073,0.0321,0.9064,0.453,-0.543,-7.999,-0.257514,-0.125977,-0.184655,"$VNYMR,-045.994,-000.747,+003.097,+00.2073,+00.0321,+00.9064,+00.453,-00.543,-07.999,-00.257514,-00.125977,-00.184655*63"
1710358856.1304882,-46.218,-1.078,2.804,0.2135,0.0287,0.9068,0.96,0.33,-9.117,-0.167189,-0.31595,-0.123869,"$VNYMR,-046.218,-001.078,+002.804,+00.2135,+00.0287,+00.9068,+00.960,+00.330,-09.117,-00.167189,-00.315950,-00.123869*65"
1710358856.1563075,-46.392,-1.557,2.597,0.2164,0.0231,0.8994,0.897,0.883,-10.055,-0.154212,-0.358241,-0.07509,"$VNYMR,-046.392,-001.557,+002.597,+00.2164,+00.0231,+00.8994,+00.897,+00.883,-10.055,-00.154212,-00.358241,-00.075090*61"
1710358856.181672,-46.35,-1.959,2.376,0.2185,0.023,0.9008,0.53,0.926,-11.234,-0.130843,-0.219947,0.122401,"$VNYMR,-046.350,-001.959,+002.376,+00.2185,+00.0230,+00.9008,+00.530,+00.926,-11.234,-00.130843,-00.219947,+00.122401*61"
1710358856.2076812,-46.117,-2.169,2.298,0.2184,0.0208,0.8996,0.232,-0.169,-10.62,0.00979,-0.126991,0.167979,"$VNYMR,-046.117,-002.169,+002.298,+00.2184,+00.0208,+00.8996,+00.232,-00.169,-10.620,+00.009790,-00.126991,+00.167979*67"
1710358856.2331326,-45.91,-2.305,2.334,0.2216,0.0219,0.8959,-0.203,-0.737,-10.7,0.03176,-0.061489,0.120257,"$VNYMR,-045.910,-002.305,+002.334,+00.2216,+00.0219,+00.8959,-00.203,-00.737,-10.700,+00.031760,-00.061489,+00.120257*63"
1710358856.2588177,-45.803,-2.235,2.383,0.2205,0.0208,0.8997,-0.274,-0.736,-9.943,0.027131,0.085815,0.001068,"$VNYMR,-045.803,-002.235,+002.383,+00.2205,+00.0208,+00.8997,-00.274,-00.736,-09.943,+00.027131,+00.085815,+00.001068*62"
1710358856.2844887,-45.795,-2.112,2.421,0.2185,0.023,0.9008,0.16,0.034,-9.192,0.066518,0.041315,-0.013719,"$VNYMR,-045.795,-002.112,+002.421,+00.2185,+00.0230,+00.9008,+00.160,+00.034,-09.192,+00.066518,+00.041315,-00.013719*6F"
1710358856.3103878,-45.792,-2.126,2.548,0.2185,0.0252,0.8995,0.287,0.353,-9.739,0.086855,-0.014324,0.005272,"$VNYMR,-045.792,-002.126,+002.548,+00.2185,+00.0252,+00.8995,+00.287,+00.353,-09.739,+00.086855,-00.014324,+00.005272*61"
1710358856.3358681,-45.77,-2.09,2.659,0.2186,0.0264,0.9033,0.194,0.195,-9.896,0.093729,0.043253,-0.004332,"$VNYMR,-045.770,-002.090,+002.659,+00.2186,+00.0264,+00.9033,+00.194,+00.195,-09.896,+00.093729,+00.043253,-00.004332*64"
1710358856.3616116,-45.781,-2.028,2.821,0.2185,0.0219,0.9008,0.256,0.553,-9.906,0.11409,0.050634,0.028262,"$VNYMR,-045.781,-002.028,+002.821,+00.2185,+00.0219,+00.9008,+00.256,+00.553,-09.906,+00.114090,+00.050634,+00.028262*62"
1710358856.3872442,-45.72,-1.948,2.97,0.2186,0.0253,0.9033,-0.06,-0.402,-9.532,0.097588,0.056011,0.027524,"$VNYMR,-045.720,-001.948,+002.970,+00.2186,+00.0253,+00.9033,-00.060,-00.402,-09.532,+00.097588,+00.056011,+00.027524*67"
1710358856.4135668,-45.759,-1.855,3.039,0.2155,0.0264,0.9031,-0.204,-0.791,-9.436,0.042672,0.074637,-0.067616,"$VNYMR,-045.759,-001.855,+003.039,+00.2155,+00.0264,+00.9031,-00.204,-00.791,-09.436,+00.042672,+00.074637,-00.067616*69"
1710358856.4385767,-45.958,-1.792,3.083,0.2166,0.0297,0.9006,-0.186,-0.685,-9.59,0.003842,0.032484,-0.184484,"$VNYMR,-045.958,-001.792,+003.083,+00.2166,+00.0297,+00.9006,-00.186,-00.685,-09.590,+00.003842,+00.032484,-00.184484*6E"
1710358856.4648254,-46.231,-1.72,3.142,0.2177,0.0342,0.9031,0.106,-0.08,-9.705,0.078424,0.037192,-0.18081,"$VNYMR,-046.231,-001.720,+003.142,+00.2177,+00.0342,+00.9031,+00.106,-00.080,-09.705,+00.078424,+00.037192,-00.180810*60"
1710358856.4914093,-46.462,-1.624,3.27,0.2167,0.0342,0.9018,0.128,-1.113,-9.966,0.046178,0.091612,-0.189595,"$VNYMR,-046.462,-001.624,+003.270,+00.2167,+00.0342,+00.9018,+00.128,-01.113,-09.966,+00.046178,+00.091612,-00.189595*6B"
1710358856.5149014,-46.776,-1.363,3.281,0.2145,0.0287,0.9018,0.579,-0.785,-9.136,0.000298,0.167274,-0.247002,"$VNYMR,-046.776,-001.363,+003.281,+00.2145,+00.0287,+00.9018,+00.579,-00.785,-09.136,+00.000298,+00.167274,-00.247002*61"
1710358856.5405102,-47.076,-1.281,3.361,0.2137,0.0398,0.9016,1.09,-0.147,-9.06,0.088994,-0.061787,-0.159329,"$VNYMR,-047.076,-001.281,+003.361,+00.2137,+00.0398,+00.9016,+01.090,-00.147,-09.060,+00.088994,-00.061787,-00.159329*61"
1710358856.5661068,-47.244,-1.445,3.561,0.2146,0.032,0.9017,0.962,-1.266,-9.489,0.155328,-0.16036,-0.101556,"$VNYMR,-047.244,-001.445,+003.561,+00.2146,+00.0320,+00.9017,+00.962,-01.266,-09.489,+00.155328,-00.160360,-00.101556*6B"
1710358856.59185,-47.456,-1.735,3.775,0.2188,0.0364,0.8993,1.068,-1.1,-9.778,0.137165,-0.235689,-0.140091,"$VNYMR,-047.456,-001.735,+003.775,+00.2188,+00.0364,+00.8993,+01.068,-01.100,-09.778,+00.137165,-00.235689,-00.140091*62"
1710358856.6182551,-47.648,-2.088,3.976,0.2189,0.0408,0.8955,1.32,-0.991,-9.707,0.114529,-0.276855,-0.099339,"$VNYMR,-047.648,-002.088,+003.976,+00.2189,+00.0408,+00.8955,+01.320,-00.991,-09.707,+00.114529,-00.276855,-00.099339*61"
1710358856.6719882,-47.8,-2.55,4.109,0.222,0.0396,0.9007,1.213,-0.647,-9.976,0.066983,-0.384377,-0.064141,"$VNYMR,-047.800,-002.550,+004.109,+00.2220,+00.0396,+00.9007,+01.213,-00.647,-09.976,+00.066983,-00.384377,-00.064141*66"
1710358856.7151048,-47.936,-2.979,4.15,0.2283,0.0406,0.8997,0.817,-0.816,-11.208,0.012295,-0.233101,-0.107144,"$VNYMR,-047.936,-002.979,+004.150,+00.2283,+00.0406,+00.8997,+00.817,-00.816,-11.208,+00.012295,-00.233101,-00.107144*61"
1710358856.7590477,-48.141,-3.134,4.274,0.2294,0.0462,0.8921,0.99,-0.048,-10.327,0.119476,-0.05894,-0.125025,"$VNYMR,-048.141,-003.134,+004.274,+00.2294,+00.0462,+00.8921,+00.990,-00.048,-10.327,+00.119476,-00.058940,-00.125025*6F"
1710358856.8028023,-48.274,-3.119,4.341,0.2294,0.0428,0.8934,1.214,-0.073,-8.977,-0.027666,0.033714,-0.057965,"$VNYMR,-048.274,-003.119,+004.341,+00.2294,+00.0428,+00.8934,+01.214,-00.073,-08.977,-00.027666,+00.033714,-00.057965*64"
1710358856.8471205,-48.328,-3.007,4.232,0.2283,0.0439,0.8908,1.221,-0.132,-8.277,-0.081261,0.071667,-0.036093,"$VNYMR,-048.328,-003.007,+004.232,+00.2283,+00.0439,+00.8908,+01.221,-00.132,-08.277,-00.081261,+00.071667,-00.036093*6C"
1710358856.8903823,-48.301,-3.029,4.168,0.2286,0.0517,0.8971,1.371,-0.49,-7.232,-0.002598,-0.121018,0.041654,"$VNYMR,-048.301,-003.029,+004.168,+00.2286,+00.0517,+00.8971,+01.371,-00.490,-07.232,-00.002598,-00.121018,+00.041654*6B"
1710358856.933408,-48.277,-3.437,4.203,0.2326,0.0472,0.8897,0.919,-1.466,-8.668,0.005148,-0.344816,0.017784,"$VNYMR,-048.277,-003.437,+004.203,+00.2326,+00.0472,+00.8897,+00.919,-01.466,-08.668,+00.005148,-00.344816,+00.017784*67"
1710358856.9752712,-48.375,-3.843,4.21,0.2356,0.0427,0.8899,0.82,-1.341,-9.325,0.01184,-0.276996,-0.084961,"$VNYMR,-048.375,-003.843,+004.210,+00.2356,+00.0427,+00.8899,+00.820,-01.341,-09.325,+00.011840,-00.276996,-00.084961*60"
1710358857.020546,-48.472,-4.256,4.219,0.2388,0.046,0.8875,0.998,-1.114,-9.299,-0.030419,-0.322327,-0.024659,"$VNYMR,-048.472,-004.256,+004.219,+00.2388,+00.0460,+00.8875,+00.998,-01.114,-09.299,-00.030419,-00.322327,-00.024659*6F"
1710358857.0658839,-48.553,-4.655,4.187,0.2429,0.0459,0.8852,1.014,-1.456,-10.364,-0.03274,-0.229185,-0.071174,"$VNYMR,-048.553,-004.655,+004.187,+00.2429,+00.0459,+00.8852,+01.014,-01.456,-10.364,-00.032740,-00.229185,-00.071174*6C"
1710358857.111927,-48.713,-4.886,4.107,0.2439,0.0437,0.8853,1.515,-0.228,-9.948,-0.065092,-0.160883,-0.086398,"$VNYMR,-048.713,-004.886,+004.107,+00.2439,+00.0437,+00.8853,+01.515,-00.228,-09.948,-00.065092,-00.160883,-00.086398*6F"
1710358857.1592336,-48.724,-5.162,4.04,0.2459,0.0403,0.888,1.396,-0.117,-10.628,-0.028653,-0.196421,0.069791,"$VNYMR,-048.724,-005.162,+004.040,+00.2459,+00.0403,+00.8880,+01.396,-00.117,-10.628,-00.028653,-00.196421,+00.069791*62"
1710358857.2124999,-48.669,-5.328,3.962,0.2491,0.0402,0.8894,0.912,-1.322,-10.811,-0.072247,-0.069732,0.00521,"$VNYMR,-048.669,-005.328,+003.962,+00.2491,+00.0402,+00.8894,+00.912,-01.322,-10.811,-00.072247,-00.069732,+00.005210*66"
1710358857.2614944,-48.858,-5.41,3.857,0.2491,0.0436,0.8817,0.807,-1.137,-10.796,-0.088564,-0.06892,-0.212159,"$VNYMR,-048.858,-005.410,+003.857,+00.2491,+00.0436,+00.8817,+00.807,-01.137,-10.796,-00.088564,-00.068920,-00.212159*6D"
1710358857.310714,-49.026,-5.483,3.678,0.248,0.0414,0.8779,0.96,0.267,-11.562,-0.183026,-0.019719,0.014739,"$VNYMR,-049.026,-005.483,+003.678,+00.2480,+00.0414,+00.8779,+00.960,+00.267,-11.562,-00.183026,-00.019719,+00.014739*63"
1710358857.3544683,-48.931,-5.461,3.427,0.2489,0.0369,0.8768,-0.173,-2.398,-12.01,-0.122816,0.035653,-0.010008,"$VNYMR,-048.931,-005.461,+003.427,+00.2489,+00.0369,+00.8768,-00.173,-02.398,-12.010,-00.122816,+00.035653,-00.010008*67"
1710358857.3976948,-49.173,-5.397,3.356,0.2491,0.0414,0.8881,-0.448,-1.426,-11.832,-0.034103,0.06392,-0.23416,"$VNYMR,-049.173,-005.397,+003.356,+00.2491,+00.0414,+00.8881,-00.448,-01.426,-11.832,-00.034103,+00.063920,-00.234160*64"
1710358857.442476,-49.395,-5.261,3.281,0.248,0.0391,0.8855,-0.524,-0.319,-11.505,-0.114862,0.138474,-0.093178,"$VNYMR,-049.395,-005.261,+003.281,+00.2480,+00.0391,+00.8855,-00.524,-00.319,-11.505,-00.114862,+00.138474,-00.093178*6E"
1710358857.4853947,-49.5,-5.126,3.043,0.2459,0.0403,0.8892,-0.571,-0.134,-11.202,-0.125866,0.007323,-0.088106,"$VNYMR,-049.500,-005.126,+003.043,+00.2459,+00.0403,+00.8892,-00.571,-00.134,-11.202,-00.125866,+00.007323,-00.088106*6B"
1710358857.528573,-49.532,-5.374,3.08,0.2511,0.038,0.8844,-0.859,0.842,-12.217,0.126947,-0.267622,0.079362,"$VNYMR,-049.532,-005.374,+003.080,+00.2511,+00.0380,+00.8844,-00.859,+00.842,-12.217,+00.126947,-00.267622,+00.079362*6D"
1710358857.5713055,-49.268,-5.737,3.293,0.2521,0.038,0.8883,-1.868,-0.58,-13.573,0.129755,-0.161656,0.243553,"$VNYMR,-049.268,-005.737,+003.293,+00.2521,+00.0380,+00.8883,-01.868,-00.580,-13.573,+00.129755,-00.161656,+00.243553*67"
1710358857.6159096,-49.011,-5.6,3.334,0.252,0.0346,0.8858,-2.187,-1.068,-12.826,0.036522,0.274542,0.101615,"$VNYMR,-049.011,-005.600,+003.334,+00.2520,+00.0346,+00.8858,-02.187,-01.068,-12.826,+00.036522,+00.274542,+00.101615*64"
1710358857.6590612,-48.891,-5.005,3.378,0.2468,0.0347,0.883,-1.784,-0.871,-9.868,0.014493,0.498288,0.014366,"$VNYMR,-048.891,-005.005,+003.378,+00.2468,+00.0347,+00.8830,-01.784,-00.871,-09.868,+00.014493,+00.498288,+00.014366*61"
1710358857.7019463,-48.945,-4.3,3.322,0.2396,0.036,0.8877,-1.105,-0.235,-7.332,-0.078108,0.457397,-0.120088,"$VNYMR,-048.945,-004.300,+003.322,+00.2396,+00.0360,+00.8877,-01.105,-00.235,-07.332,-00.078108,+00.457397,-00.120088*6A"
1710358857.7446988,-49.164,-3.785,3.024,0.2364,0.0338,0.8939,-0.154,1.385,-7.268,-0.293363,0.293653,-0.17841,"$VNYMR,-049.164,-003.785,+003.024,+00.2364,+00.0338,+00.8939,-00.154,+01.385,-07.268,-00.293363,+00.293653,-00.178410*65"
1710358857.7870183,-49.324,-3.549,2.732,0.2334,0.0361,0.8937,0.348,2.677,-7.612,-0.116794,-0.000293,-0.064423,"$VNYMR,-049.324,-003.549,+002.732,+00.2334,+00.0361,+00.8937,+00.348,+02.677,-07.612,-00.116794,-00.000293,-00.064423*64"
1710358857.8301196,-49.241,-3.78,2.795,0.2354,0.0338,0.8951,0.029,2.63,-9.777,0.151681,-0.194145,0.176974,"$VNYMR,-049.241,-003.780,+002.795,+00.2354,+00.0338,+00.8951,+00.029,+02.630,-09.777,+00.151681,-00.194145,+00.176974*62"
1710358857.845697,-48.898,-3.97,2.944,0.2396,0.0338,0.8953,-0.951,0.32,-10.977,0.056655,0.000574,0.257997,"$VNYMR,-048.898,-003.970,+002.944,+00.2396,+00.0338,+00.8953,-00.951,+00.320,-10.977,+00.056655,+00.000574,+00.257997*6C"
1710358857.8721986,-48.6,-3.824,2.948,0.2374,0.0305,0.8978,-1.175,-0.651,-9.786,0.03157,0.155554,0.162537,"$VNYMR,-048.600,-003.824,+002.948,+00.2374,+00.0305,+00.8978,-01.175,-00.651,-09.786,+00.031570,+00.155554,+00.162537*63"
1710358857.897596,-48.445,-3.723,3.073,0.2354,0.0327,0.8964,-0.811,-1.081,-7.988,0.16296,-0.020482,0.061228,"$VNYMR,-048.445,-003.723,+003.073,+00.2354,+00.0327,+00.8964,-00.811,-01.081,-07.988,+00.162960,-00.020482,+00.061228*67"
1710358857.952257,-48.43,-3.886,3.318,0.2365,0.0383,0.8926,-0.454,-0.794,-8.247,0.133122,-0.127085,-0.002254,"$VNYMR,-048.430,-003.886,+003.318,+00.2365,+00.0383,+00.8926,-00.454,-00.794,-08.247,+00.133122,-00.127085,-00.002254*6E"
1710358857.995287,-48.443,-3.904,3.352,0.2385,0.0327,0.8915,0.133,-0.157,-8.81,-0.021238,0.070197,-0.016296,"$VNYMR,-048.443,-003.904,+003.352,+00.2385,+00.0327,+00.8915,+00.133,-00.157,-08.810,-00.021238,+00.070197,-00.016296*6C"
1710358858.0390935,-48.489,-3.784,3.354,0.2376,0.0393,0.8952,0.666,0.462,-8.08,0.042417,0.038515,-0.056706,"$VNYMR,-048.489,-003.784,+003.354,+00.2376,+00.0393,+00.8952,+00.666,+00.462,-08.080,+00.042417,+00.038515,-00.056706*6B"
1710358858.0819073,-48.471,-3.788,3.498,0.2385,0.0349,0.8927,0.811,0.667,-8.014,0.136988,-0.038173,0.058477,"$VNYMR,-048.471,-003.788,+003.498,+00.2385,+00.0349,+00.8927,+00.811,+00.667,-08.014,+00.136988,-00.038173,+00.058477*6C"
1710358858.1257038,-48.357,-3.769,3.621,0.2368,0.0482,0.8963,0.459,0.242,-8.385,0.040563,0.081244,0.079168,"$VNYMR,-048.357,-003.769,+003.621,+00.2368,+00.0482,+00.8963,+00.459,+00.242,-08.385,+00.040563,+00.081244,+00.079168*69"
1710358858.168841,-48.147,-3.604,3.555,0.2334,0.0383,0.8912,0.496,0.747,-7.926,-0.066109,0.123193,0.200143,"$VNYMR,-048.147,-003.604,+003.555,+00.2334,+00.0383,+00.8912,+00.496,+00.747,-07.926,-00.066109,+00.123193,+00.200143*69"
1710358858.2131383,-47.848,-3.572,3.543,0.2333,0.035,0.8925,0.518,0.017,-7.848,0.060822,-0.050553,0.189032,"$VNYMR,-047.848,-003.572,+003.543,+00.2333,+00.0350,+00.8925,+00.518,+00.017,-07.848,+00.060822,-00.050553,+00.189032*6A"
1710358858.2567577,-47.676,-3.696,3.591,0.2354,0.0327,0.8952,0.435,-0.21,-9.491,0.006229,-0.036333,0.073506,"$VNYMR,-047.676,-003.696,+003.591,+00.2354,+00.0327,+00.8952,+00.435,-00.210,-09.491,+00.006229,-00.036333,+00.073506*62"
1710358858.2995384,-47.589,-3.611,3.55,0.2364,0.0316,0.8914,0.86,0.142,-9.778,-0.004447,0.08399,0.055631,"$VNYMR,-047.589,-003.611,+003.550,+00.2364,+00.0316,+00.8914,+00.860,+00.142,-09.778,-00.004447,+00.083990,+00.055631*68"
1710358858.340801,-47.517,-3.599,3.636,0.2333,0.0339,0.9026,1.06,-0.138,-10.4,0.096244,-0.052864,0.048917,"$VNYMR,-047.517,-003.599,+003.636,+00.2333,+00.0339,+00.9026,+01.060,-00.138,-10.400,+00.096244,-00.052864,+00.048917*60"
1710358858.3801656,-47.415,-3.542,3.799,0.2345,0.0394,0.8975,0.524,-1.359,-10.951,0.121186,0.083375,0.04371,"$VNYMR,-047.415,-003.542,+003.799,+00.2345,+00.0394,+00.8975,+00.524,-01.359,-10.951,+00.121186,+00.083375,+00.043710*63"
1710358858.421229,-47.499,-3.327,3.964,0.2314,0.0383,0.8974,-0.002,-1.887,-10.193,0.099015,0.157065,-0.156907,"$VNYMR,-047.499,-003.327,+003.964,+00.2314,+00.0383,+00.8974,-00.002,-01.887,-10.193,+00.099015,+00.157065,-00.156907*6C"
1710358858.461029,-47.914,-3.24,4.12,0.2282,0.0384,0.896,-0.134,-1.087,-11.16,0.120522,-0.000945,-0.382306,"$VNYMR,-047.914,-003.240,+004.120,+00.2282,+00.0384,+00.8960,-00.134,-01.087,-11.160,+00.120522,-00.000945,-00.382306*6A"
1710358858.5002766,-48.504,-3.346,4.567,0.2336,0.045,0.8936,0.951,0.113,-12.146,0.386414,-0.132285,-0.362631,"$VNYMR,-048.504,-003.346,+004.567,+00.2336,+00.0450,+00.8936,+00.951,+00.113,-12.146,+00.386414,-00.132285,-00.362631*68"
1710358858.5404944,-48.99,-3.439,5.113,0.2337,0.0483,0.8974,1.497,0.968,-12.134,0.318937,-0.095681,-0.251541,"$VNYMR,-048.990,-003.439,+005.113,+00.2337,+00.0483,+00.8974,+01.497,+00.968,-12.134,+00.318937,-00.095681,-00.251541*6C"
1710358858.5808623,-49.121,-3.55,5.598,0.2339,0.0561,0.8934,0.811,-0.586,-12.472,0.336338,-0.122698,-0.03224,"$VNYMR,-049.121,-003.550,+005.598,+00.2339,+00.0561,+00.8934,+00.811,-00.586,-12.472,+00.336338,-00.122698,-00.032240*62"
1710358858.6002784,-49.249,-3.775,6.012,0.2381,0.0604,0.8923,-0.591,-0.94,-13.511,0.274613,-0.178498,-0.093345,"$VNYMR,-049.249,-003.775,+006.012,+00.2381,+00.0604,+00.8923,-00.591,-00.940,-13.511,+00.274613,-00.178498,-00.093345*62"
1710358858.6223297,-49.37,-3.755,6.208,0.234,0.0627,0.8895,-2.2,-0.425,-14.68,0.019654,0.196987,-0.071004,"$VNYMR,-049.370,-003.755,+006.208,+00.2340,+00.0627,+00.8895,-02.200,-00.425,-14.680,+00.019654,+00.196987,-00.071004*68"
1710358858.6525972,-49.388,-3.008,6.122,0.2329,0.0594,0.8971,-2.098,-0.127,-12.103,-0.111458,0.707849,-0.047431,"$VNYMR,-049.388,-003.008,+006.122,+00.2329,+00.0594,+00.8971,-02.098,-00.127,-12.103,-00.111458,+00.707849,-00.047431*61"
1710358858.7055247,-49.272,-1.838,5.806,0.2236,0.0607,0.9005,-1.217,-0.847,-7.148,-0.237396,0.795579,-0.009094,"$VNYMR,-049.272,-001.838,+005.806,+00.2236,+00.0607,+00.9005,-01.217,-00.847,-07.148,-00.237396,+00.795579,-00.009094*69"
1710358858.7470272,-49.233,-1.21,5.579,0.2173,0.0564,0.9091,-0.484,-0.68,-5.216,-0.113445,0.186286,0.011074,"$VNYMR,-049.233,-001.210,+005.579,+00.2173,+00.0564,+00.9091,-00.484,-00.680,-05.216,-00.113445,+00.186286,+00.011074*6C"
1710358858.7867815,-49.198,-1.297,5.453,0.2184,0.0597,0.9053,-0.74,-1.546,-7.242,-0.069432,-0.163267,0.008562,"$VNYMR,-049.198,-001.297,+005.453,+00.2184,+00.0597,+00.9053,-00.740,-01.546,-07.242,-00.069432,-00.163267,+00.008562*66"
1710358858.8308272,-49.344,-2.3,5.267,0.2244,0.0529,0.9006,-1.424,-2.056,-11.235,-0.073567,-0.388769,-0.095846,"$VNYMR,-049.344,-002.300,+005.267,+00.2244,+00.0529,+00.9006,-01.424,-02.056,-11.235,-00.073567,-00.388769,-00.095846*6D"
1710358858.870093,-49.614,-2.674,5.266,0.2276,0.0529,0.897,-1.069,-0.678,-11.704,0.028612,-0.199789,38342.0,"$VNYMR,-049.614,-002.674,+005.266,+00.2276,+00.0529,+00.8970,-01.069,-00.678,-11.704,+00.028612,-00.199789,38342,-00.032710*68"
1710358858.9095886,-51.201,1.323,5.722,0.1977,0.0623,0.9144,-0.926,-1.78,-8.437,-0.094954,-0.316225,-0.008247,"$VNYMR,-051.201,+001.323,+005.722,+00.1977,+00.0623,+00.9144,-00.926,-01.780,-08.437,-00.094954,-00.316225,-00.008247*6F"
1710358858.9487886,-51.315,0.735,5.61,0.2019,0.0633,0.9145,-1.227,-1.318,-10.199,-0.061537,-0.443542,-0.034753,"$VNYMR,-051.315,+000.735,+005.610,+00.2019,+00.0633,+00.9145,-01.227,-01.318,-10.199,-00.061537,-00.443542,-00.034753*60"
1710358858.9913695,-51.52,0.174,5.584,0.2071,0.0643,0.9135,-1.04,-1.098,-10.988,0.012191,-0.341844,-0.147275,"$VNYMR,-051.520,+000.174,+005.584,+00.2071,+00.0643,+00.9135,-01.040,-01.098,-10.988,+00.012191,-00.341844,-00.147275*63"
1710358859.0293715,-51.833,-0.032,5.544,0.2091,0.061,0.9086,-0.461,-1.41,-10.274,-0.084281,-0.010672,-0.270591,"$VNYMR,-051.833,-000.032,+005.544,+00.2091,+00.0610,+00.9086,-00.461,-01.410,-10.274,-00.084281,-00.010672,-00.270591*63"
1710358859.0637364,-52.32,0.211,5.291,0.2081,0.0654,0.9098,0.444,-0.338,-7.785,-0.224761,0.195094,-0.366246,"$VNYMR,-052.320,+000.211,+005.291,+00.2081,+00.0654,+00.9098,+00.444,-00.338,-07.785,-00.224761,+00.195094,-00.366246*61"
1710358859.0795183,-52.758,0.442,4.964,0.2062,0.0699,0.9083,0.956,0.058,-5.939,-0.177902,0.041734,-0.279618,"$VNYMR,-052.758,+000.442,+004.964,+00.2062,+00.0699,+00.9083,+00.956,+00.058,-05.939,-00.177902,+00.041734,-00.279618*61"
1710358859.1047268,-53.075,0.255,4.817,0.2069,0.0588,0.9085,0.796,-0.68,-6.889,-0.08175,-0.211761,-0.179527,"$VNYMR,-053.075,+000.255,+004.817,+00.2069,+00.0588,+00.9085,+00.796,-00.680,-06.889,-00.081750,-00.211761,-00.179527*61"
1710358859.1560683,-53.345,0.015,4.586,0.2081,0.0632,0.9098,0.59,-0.827,-7.322,-0.233868,-0.172082,-0.160227,"$VNYMR,-053.345,+000.015,+004.586,+00.2081,+00.0632,+00.9098,+00.590,-00.827,-07.322,-00.233868,-00.172082,-00.160227*6A"
1710358859.1951258,-53.539,-0.234,4.265,0.2142,0.0587,0.9102,0.638,-0.753,-7.65,-0.192454,-0.236486,-0.097198,"$VNYMR,-053.539,-000.234,+004.265,+00.2142,+00.0587,+00.9102,+00.638,-00.753,-07.650,-00.192454,-00.236486,-00.097198*60"
1710358859.2339664,-53.699,-0.744,4.111,0.2162,0.0564,0.9065,0.605,-0.632,-8.833,-0.049891,-0.440908,-0.070905,"$VNYMR,-053.699,-000.744,+004.111,+00.2162,+00.0564,+00.9065,+00.605,-00.632,-08.833,-00.049891,-00.440908,-00.070905*63"
1710358859.2733018,-53.842,-1.218,4.048,0.2194,0.0597,0.9003,0.74,-0.189,-10.366,-0.063673,-0.24635,-0.07472,"$VNYMR,-053.842,-001.218,+004.048,+00.2194,+00.0597,+00.9003,+00.740,-00.189,-10.366,-00.063673,-00.246350,-00.074720*6B"
1710358859.2996848,-53.798,-1.363,3.901,0.2224,0.0552,0.9043,1.177,-0.213,-10.063,-0.123487,-0.030306,0.095542,"$VNYMR,-053.798,-001.363,+003.901,+00.2224,+00.0552,+00.9043,+01.177,-00.213,-10.063,-00.123487,-00.030306,+00.095542*6E"
1710358859.313722,-53.583,-1.358,3.68,0.2213,0.0508,0.903,1.301,-1.489,-9.406,-0.177844,-0.00485,0.153373,"$VNYMR,-053.583,-001.358,+003.680,+00.2213,+00.0508,+00.9030,+01.301,-01.489,-09.406,-00.177844,-00.004850,+00.153373*6D"
1710358859.3402042,-53.464,-1.482,3.459,0.2222,0.0463,0.9006,0.75,-1.807,-10.284,-0.121385,-0.153011,0.03986,"$VNYMR,-053.464,-001.482,+003.459,+00.2222,+00.0463,+00.9006,+00.750,-01.807,-10.284,-00.121385,-00.153011,+00.039860*68"
1710358859.3663447,-53.482,-1.78,3.381,0.2254,0.0496,0.8969,0.073,-1.768,-12.454,-0.049608,-0.225469,-0.037682,"$VNYMR,-053.482,-001.780,+003.381,+00.2254,+00.0496,+00.8969,+00.073,-01.768,-12.454,-00.049608,-00.225469,-00.037682*6C"
1710358859.3912344,-53.67,-1.933,3.266,0.2243,0.0485,0.8931,0.091,-1.106,-13.673,-0.111333,-0.025969,-0.181525,"$VNYMR,-053.670,-001.933,+003.266,+00.2243,+00.0485,+00.8931,+00.091,-01.106,-13.673,-00.111333,-00.025969,-00.181525*6C"
1710358859.4190004,-53.878,-1.843,3.102,0.2275,0.0506,0.9034,0.734,0.388,-12.469,-0.12598,0.069424,-0.070143,"$VNYMR,-053.878,-001.843,+003.102,+00.2275,+00.0506,+00.9034,+00.734,+00.388,-12.469,-00.125980,+00.069424,-00.070143*68"
1710358859.4430208,-53.829,-1.909,2.973,0.2253,0.0473,0.9008,0.819,0.253,-12.708,-0.054893,-0.125101,0.095828,"$VNYMR,-053.829,-001.909,+002.973,+00.2253,+00.0473,+00.9008,+00.819,+00.253,-12.708,-00.054893,-00.125101,+00.095828*67"
1710358859.468912,-53.607,-2.178,2.987,0.2274,0.044,0.9022,0.368,0.497,-14.059,0.085815,-0.200495,0.214502,"$VNYMR,-053.607,-002.178,+002.987,+00.2274,+00.0440,+00.9022,+00.368,+00.497,-14.059,+00.085815,-00.200495,+00.214502*6E"
1710358859.517897,-53.177,-2.32,3.185,0.2275,0.0484,0.9009,-1.16,0.851,-15.108,0.187188,0.072546,0.376408,"$VNYMR,-053.177,-002.320,+003.185,+00.2275,+00.0484,+00.9009,-01.160,+00.851,-15.108,+00.187188,+00.072546,+00.376408*6B"
1710358859.5587275,-52.474,-1.933,3.443,0.2243,0.0463,0.9007,-2.473,-0.629,-12.543,0.204638,0.416781,0.488617,"$VNYMR,-052.474,-001.933,+003.443,+00.2243,+00.0463,+00.9007,-02.473,-00.629,-12.543,+00.204638,+00.416781,+00.488617*64"
1710358859.5994473,-51.842,-1.087,3.507,0.2172,0.0553,0.9053,-3.034,-2.0,-9.309,-0.038162,0.721978,0.298415,"$VNYMR,-051.842,-001.087,+003.507,+00.2172,+00.0553,+00.9053,-03.034,-02.000,-09.309,-00.038162,+00.721978,+00.298415*6B"
1710358859.6274896,-51.678,-0.123,3.348,0.2096,0.041,0.9026,-2.109,-0.748,-6.166,-0.15323,0.587145,-0.064366,"$VNYMR,-051.678,-000.123,+003.348,+00.2096,+00.0410,+00.9026,-02.109,-00.748,-06.166,-00.153230,+00.587145,-00.064366*67"
1710358859.641246,-51.907,0.345,3.105,0.2044,0.0422,0.9087,-0.713,1.874,-6.094,-0.167329,0.134922,-0.207164,"$VNYMR,-051.907,+000.345,+003.105,+00.2044,+00.0422,+00.9087,-00.713,+01.874,-06.094,-00.167329,+00.134922,-00.207164*62"
1710358859.6681614,-52.06,0.183,2.94,0.2077,0.0477,0.9062,0.692,4.077,-8.035,-0.034288,-0.266978,0.036048,"$VNYMR,-052.060,+000.183,+002.940,+00.2077,+00.0477,+00.9062,+00.692,+04.077,-08.035,-00.034288,-00.266978,+00.036048*6E"
1710358859.6940114,-51.63,-0.311,3.022,0.2098,0.0499,0.9076,0.207,2.38,-9.921,0.087788,-0.319516,0.463492,"$VNYMR,-051.630,-000.311,+003.022,+00.2098,+00.0499,+00.9076,+00.207,+02.380,-09.921,+00.087788,-00.319516,+00.463492*60"
1710358859.7426903,-50.931,-0.653,3.113,0.2127,0.0398,0.9041,-0.869,-0.297,-10.38,0.048273,-0.122568,0.474337,"$VNYMR,-050.931,-000.653,+003.113,+00.2127,+00.0398,+00.9041,-00.869,-00.297,-10.380,+00.048273,-00.122568,+00.474337*69"
1710358859.7800632,-50.412,-0.729,3.183,0.2136,0.0353,0.908,-1.035,-1.211,-9.023,0.068249,-0.01734,0.286756,"$VNYMR,-050.412,-000.729,+003.183,+00.2136,+00.0353,+00.9080,-01.035,-01.211,-09.023,+00.068249,-00.017340,+00.286756*6F"
1710358859.818699,-50.106,-0.781,3.283,0.2136,0.0331,0.9055,-0.621,-1.694,-8.239,0.074234,-0.017659,0.169372,"$VNYMR,-050.106,-000.781,+003.283,+00.2136,+00.0331,+00.9055,-00.621,-01.694,-08.239,+00.074234,-00.017659,+00.169372*6B"
1710358859.8339193,-50.034,-0.791,3.319,0.2125,0.0331,0.9079,0.044,-1.68,-7.16,-0.013941,-0.032293,-0.039874,"$VNYMR,-050.034,-000.791,+003.319,+00.2125,+00.0331,+00.9079,+00.044,-01.680,-07.160,-00.013941,-00.032293,-00.039874*66"
1710358859.8591974,-50.137,-0.907,3.317,0.2157,0.0342,0.9018,0.757,-0.454,-7.297,-0.003462,-0.141365,-0.083301,"$VNYMR,-050.137,-000.907,+003.317,+00.2157,+00.0342,+00.9018,+00.757,-00.454,-07.297,-00.003462,-00.141365,-00.083301*61"
1710358859.888152,-50.17,-1.059,3.337,0.2177,0.0342,0.9044,1.122,0.452,-8.115,0.028505,-0.089234,0.027285,"$VNYMR,-050.170,-001.059,+003.337,+00.2177,+00.0342,+00.9044,+01.122,+00.452,-08.115,+00.028505,-00.089234,+00.027285*61"
1710358859.913843,-50.088,-1.184,3.401,0.2158,0.0375,0.9068,0.917,0.236,-8.678,0.060287,-0.068547,0.064087,"$VNYMR,-050.088,-001.184,+003.401,+00.2158,+00.0375,+00.9068,+00.917,+00.236,-08.678,+00.060287,-00.068547,+00.064087*6E"
1710358859.939055,-49.996,-1.261,3.497,0.2209,0.0352,0.9045,0.662,0.56,-9.015,0.078573,-0.011513,0.086138,"$VNYMR,-049.996,-001.261,+003.497,+00.2209,+00.0352,+00.9045,+00.662,+00.560,-09.015,+00.078573,-00.011513,+00.086138*6C"
1710358859.9665315,-49.88,-1.206,3.547,0.2179,0.0397,0.9043,0.583,-0.065,-8.885,0.013484,0.084901,0.04571,"$VNYMR,-049.880,-001.206,+003.547,+00.2179,+00.0397,+00.9043,+00.583,-00.065,-08.885,+00.013484,+00.084901,+00.045710*64"
1710358859.990212,-49.868,-1.093,3.594,0.2136,0.0331,0.908,0.906,-0.151,-8.31,0.060128,0.045087,-0.025371,"$VNYMR,-049.868,-001.093,+003.594,+00.2136,+00.0331,+00.9080,+00.906,-00.151,-08.310,+00.060128,+00.045087,-00.025371*64"
1710358860.0146344,-49.958,-1.183,3.759,0.2179,0.0386,0.9056,1.116,0.02,-9.221,0.149312,-0.132409,-0.073236,"$VNYMR,-049.958,-001.183,+003.759,+00.2179,+00.0386,+00.9056,+01.116,+00.020,-09.221,+00.149312,-00.132409,-00.073236*67"
1710358860.040466,-50.035,-1.382,3.987,0.219,0.0419,0.9043,0.738,-0.143,-11.542,0.179107,-0.118291,-0.007707,"$VNYMR,-050.035,-001.382,+003.987,+00.2190,+00.0419,+00.9043,+00.738,-00.143,-11.542,+00.179107,-00.118291,-00.007707*6D"
1710358860.066491,-50.069,-1.409,4.281,0.2192,0.0508,0.9055,-0.24,-1.546,-12.706,0.219666,0.037378,-0.062486,"$VNYMR,-050.069,-001.409,+004.281,+00.2192,+00.0508,+00.9055,-00.240,-01.546,-12.706,+00.219666,+00.037378,-00.062486*63"
1710358860.0925012,-50.371,-1.255,4.576,0.218,0.0442,0.9081,-0.502,-1.226,-13.194,0.189493,0.119664,-0.330067,"$VNYMR,-050.371,-001.255,+004.576,+00.2180,+00.0442,+00.9081,-00.502,-01.226,-13.194,+00.189493,+00.119664,-00.330067*68"
1710358860.1414974,-50.925,-0.949,4.809,0.2173,0.0586,0.9065,0.833,-0.051,-12.606,0.127021,0.20223,-0.431515,"$VNYMR,-050.925,-000.949,+004.809,+00.2173,+00.0586,+00.9065,+00.833,-00.051,-12.606,+00.127021,+00.202230,-00.431515*6A"
1710358860.1798754,-51.453,-0.707,5.066,0.2111,0.0587,0.9049,1.998,1.85,-11.889,0.245337,0.045279,-0.280744,"$VNYMR,-051.453,-000.707,+005.066,+00.2111,+00.0587,+00.9049,+01.998,+01.850,-11.889,+00.245337,+00.045279,-00.280744*68"
1710358860.2116306,-51.513,-0.717,5.498,0.2143,0.0631,0.905,1.37,0.067,-12.55,0.279879,-0.000399,0.072018,"$VNYMR,-051.513,-000.717,+005.498,+00.2143,+00.0631,+00.9050,+01.370,+00.067,-12.550,+00.279879,-00.000399,+00.072018*62"
1710358860.2271006,-51.369,-0.673,5.785,0.2133,0.0642,0.9062,-0.392,-1.07,-12.292,0.165687,0.062155,0.106892,"$VNYMR,-051.369,-000.673,+005.785,+00.2133,+00.0642,+00.9062,-00.392,-01.070,-12.292,+00.165687,+00.062155,+00.106892*6D"
1710358860.2521443,-51.282,-0.523,5.99,0.2111,0.0576,0.9088,-1.754,-1.599,-12.078,0.133454,0.178286,-0.001361,"$VNYMR,-051.282,-000.523,+005.990,+00.2111,+00.0576,+00.9088,-01.754,-01.599,-12.078,+00.133454,+00.178286,-00.001361*61"
1710358860.27803,-51.373,-0.008,6.091,0.2092,0.0643,0.9124,-1.734,-1.753,-10.216,-0.00921,0.467226,-0.187149,"$VNYMR,-051.373,-000.008,+006.091,+00.2092,+00.0643,+00.9124,-01.734,-01.753,-10.216,-00.009210,+00.467226,-00.187149*65"
1710358860.3035035,-51.608,0.844,5.962,0.2032,0.0755,0.9081,-0.764,-0.948,-7.036,-0.123421,0.585812,-0.210712,"$VNYMR,-051.608,+000.844,+005.962,+00.2032,+00.0755,+00.9081,-00.764,-00.948,-07.036,-00.123421,+00.585812,-00.210712*61"
1710358860.329107,-51.786,1.535,5.728,0.1946,0.0646,0.9154,-0.31,-1.241,-5.59,-0.182762,0.362105,-0.153904,"$VNYMR,-051.786,+001.535,+005.728,+00.1946,+00.0646,+00.9154,-00.310,-01.241,-05.590,-00.182762,+00.362105,-00.153904*62"
1710358860.3549924,-51.925,1.74,5.454,0.1914,0.0624,0.9178,-0.439,-1.806,-5.133,-0.183387,-0.072888,-0.089754,"$VNYMR,-051.925,+001.740,+005.454,+00.1914,+00.0624,+00.9178,-00.439,-01.806,-05.133,-00.183387,-00.072888,-00.089754*63"
1710358860.3809907,-52.217,1.102,5.317,0.1996,0.0589,0.9082,-1.101,-2.2,-7.085,-0.025955,-0.696292,-0.223005,"$VNYMR,-052.217,+001.102,+005.317,+00.1996,+00.0589,+00.9082,-01.101,-02.200,-07.085,-00.025955,-00.696292,-00.223005*6A"
1710358860.4060218,-52.661,-0.124,5.374,0.2103,0.0687,0.9085,-1.43,-0.478,-11.066,0.059953,-0.893817,-0.180304,"$VNYMR,-052.661,-000.124,+005.374,+00.2103,+00.0687,+00.9085,-01.430,-00.478,-11.066,+00.059953,-00.893817,-00.180304*6D"
1710358860.4325485,-52.898,-0.997,5.323,0.2174,0.0619,0.9065,-1.359,-1.116,-12.801,-0.109774,-0.399887,-0.106402,"$VNYMR,-052.898,-000.997,+005.323,+00.2174,+00.0619,+00.9065,-01.359,-01.116,-12.801,-00.109774,-00.399887,-00.106402*6E"
1710358860.4577472,-53.274,-1.158,5.116,0.2174,0.0597,0.9052,-0.5,-1.235,-10.358,-0.149303,-0.016106,-0.371602,"$VNYMR,-053.274,-001.158,+005.116,+00.2174,+00.0597,+00.9052,-00.500,-01.235,-10.358,-00.149303,-00.016106,-00.371602*60"
1710358860.483464,-53.876,-1.015,4.915,0.2187,0.0741,0.9025,1.095,0.705,-7.983,-0.141367,0.086721,-0.405303,"$VNYMR,-053.876,-001.015,+004.915,+00.2187,+00.0741,+00.9025,+01.095,+00.705,-07.983,-00.141367,+00.086721,-00.405303*6C"
1710358860.509056,-54.233,-0.883,4.776,0.2143,0.0631,0.9012,1.595,0.908,-7.216,-0.079688,0.057933,-0.149797,"$VNYMR,-054.233,-000.883,+004.776,+00.2143,+00.0631,+00.9012,+01.595,+00.908,-07.216,-00.079688,+00.057933,-00.149797*6D"
1710358860.5345342,-54.263,-0.765,4.646,0.2174,0.0608,0.904,1.32,-0.518,-7.073,-0.116815,0.090557,0.031622,"$VNYMR,-054.263,-000.765,+004.646,+00.2174,+00.0608,+00.9040,+01.320,-00.518,-07.073,-00.116815,+00.090557,+00.031622*66"
1710358860.5603242,-54.258,-0.659,4.435,0.2163,0.0608,0.9064,0.935,-1.737,-6.655,-0.118235,0.00628,-0.049926,"$VNYMR,-054.258,-000.659,+004.435,+00.2163,+00.0608,+00.9064,+00.935,-01.737,-06.655,-00.118235,+00.006280,-00.049926*62"
1710358860.585982,-54.439,-0.904,4.373,0.2162,0.0575,0.9027,0.921,-0.986,-7.601,-0.000751,-0.280682,-0.123387,"$VNYMR,-054.439,-000.904,+004.373,+00.2162,+00.0575,+00.9027,+00.921,-00.986,-07.601,-00.000751,-00.280682,-00.123387*61"
1710358860.611682,-54.515,-1.295,4.333,0.2215,0.0585,0.9017,0.889,-0.82,-9.743,-0.073775,-0.221403,0.015887,"$VNYMR,-054.515,-001.295,+004.333,+00.2215,+00.0585,+00.9017,+00.889,-00.820,-09.743,-00.073775,-00.221403,+00.015887*6B"
1710358860.6374114,-54.48,-1.453,4.235,0.2236,0.0585,0.903,1.224,-0.62,-10.133,-0.050256,-0.06416,0.040615,"$VNYMR,-054.480,-001.453,+004.235,+00.2236,+00.0585,+00.9030,+01.224,-00.620,-10.133,-00.050256,-00.064160,+00.040615*61"
1710358860.663417,-54.296,-1.471,4.175,0.2225,0.0574,0.8979,1.336,-0.639,-10.237,-0.046402,0.040198,0.199115,"$VNYMR,-054.296,-001.471,+004.175,+00.2225,+00.0574,+00.8979,+01.336,-00.639,-10.237,-00.046402,+00.040198,+00.199115*66"
1710358860.6915498,-54.021,-1.514,4.123,0.2224,0.0541,0.9018,0.697,-1.658,-10.163,0.016289,-0.101247,0.16339,"$VNYMR,-054.021,-001.514,+004.123,+00.2224,+00.0541,+00.9018,+00.697,-01.658,-10.163,+00.016289,-00.101247,+00.163390*65"
1710358860.7148204,-53.933,-1.905,4.266,0.2265,0.0518,0.8982,-0.151,-1.317,-11.941,0.109196,-0.324158,0.06576,"$VNYMR,-053.933,-001.905,+004.266,+00.2265,+00.0518,+00.8982,-00.151,-01.317,-11.941,+00.109196,-00.324158,+00.065760*6E"
1710358860.7422507,-54.005,-2.206,4.275,0.2287,0.0573,0.9008,-0.444,-1.241,-14.111,-0.085078,-0.066322,-0.097954,"$VNYMR,-054.005,-002.206,+004.275,+00.2287,+00.0573,+00.9008,-00.444,-01.241,-14.111,-00.085078,-00.066322,-00.097954*66"
1710358860.7948782,-54.145,-2.013,3.993,0.2267,0.0606,0.9006,0.314,0.042,-12.207,-0.219381,0.17747,-0.058085,"$VNYMR,-054.145,-002.013,+003.993,+00.2267,+00.0606,+00.9006,+00.314,+00.042,-12.207,-00.219381,+00.177470,-00.058085*63"
1710358860.8405662,-54.144,-2.073,3.748,0.2267,0.0606,0.8994,0.439,0.12,-11.313,-0.104556,-0.234274,0.040405,"$VNYMR,-054.144,-002.073,+003.748,+00.2267,+00.0606,+00.8994,+00.439,+00.120,-11.313,-00.104556,-00.234274,+00.040405*65"
1710358860.8828692,-53.978,-2.656,3.739,0.2306,0.0506,0.8997,-0.101,0.468,-13.057,0.039235,-0.466632,0.210202,"$VNYMR,-053.978,-002.656,+003.739,+00.2306,+00.0506,+00.8997,-00.101,+00.468,-13.057,+00.039235,-00.466632,+00.210202*6E"
1710358860.9241114,-53.49,-3.091,3.738,0.2369,0.0505,0.895,-1.541,0.301,-14.894,0.025824,-0.113184,0.429931,"$VNYMR,-053.490,-003.091,+003.738,+00.2369,+00.0505,+00.8950,-01.541,+00.301,-14.894,+00.025824,-00.113184,+00.429931*6D"
1710358860.9667404,-52.775,-2.959,3.816,0.2357,0.0472,0.8975,-2.91,-1.127,-12.781,0.094307,0.226674,0.480023,"$VNYMR,-052.775,-002.959,+003.816,+00.2357,+00.0472,+00.8975,-02.910,-01.127,-12.781,+00.094307,+00.226674,+00.480023*65"
1710358861.0084498,-52.219,-2.39,3.875,0.2284,0.0428,0.9023,-2.905,-2.263,-9.831,-0.013911,0.550813,0.240874,"$VNYMR,-052.219,-002.390,+003.875,+00.2284,+00.0428,+00.9023,-02.905,-02.263,-09.831,-00.013911,+00.550813,+00.240874*6C"
1710358861.0515528,-52.083,-1.561,3.721,0.2222,0.0452,0.9032,-2.058,-1.229,-6.573,-0.176899,0.563761,-0.067304,"$VNYMR,-052.083,-001.561,+003.721,+00.2222,+00.0452,+00.9032,-02.058,-01.229,-06.573,-00.176899,+00.563761,-00.067304*65"
1710358861.0955534,-52.301,-1.015,3.384,0.215,0.0475,0.904,-0.802,1.193,-6.373,-0.239341,0.235584,-0.204099,"$VNYMR,-052.301,-001.015,+003.384,+00.2150,+00.0475,+00.9040,-00.802,+01.193,-06.373,-00.239341,+00.235584,-00.204099*6B"
1710358861.1379669,-52.505,-1.125,3.201,0.219,0.0419,0.8993,0.435,3.335,-7.606,-0.016854,-0.313396,-0.048375,"$VNYMR,-052.505,-001.125,+003.201,+00.2190,+00.0419,+00.8993,+00.435,+03.335,-07.606,-00.016854,-00.313396,-00.048375*6E"
1710358861.1799757,-52.255,-1.778,3.357,0.2222,0.0463,0.9019,0.026,2.705,-10.146,0.128749,-0.472935,0.359286,"$VNYMR,-052.255,-001.778,+003.357,+00.2222,+00.0463,+00.9019,+00.026,+02.705,-10.146,+00.128749,-00.472935,+00.359286*6A"
1710358861.2251415,-51.597,-2.142,3.336,0.2272,0.0373,0.9023,-1.022,0.43,-11.648,-0.056363,-0.028338,0.511957,"$VNYMR,-051.597,-002.142,+003.336,+00.2272,+00.0373,+00.9023,-01.022,+00.430,-11.648,-00.056363,-00.028338,+00.511957*6E"
1710358861.2682483,-51.016,-1.997,3.286,0.2241,0.0385,0.8996,-1.249,-1.711,-8.973,0.025938,0.130232,0.268846,"$VNYMR,-051.016,-001.997,+003.286,+00.2241,+00.0385,+00.8996,-01.249,-01.711,-08.973,+00.025938,+00.130232,+00.268846*68"
1710358861.3100045,-50.817,-1.962,3.361,0.2231,0.0407,0.902,-0.642,-1.723,-7.713,0.072455,-0.03267,0.05099,"$VNYMR,-050.817,-001.962,+003.361,+00.2231,+00.0407,+00.9020,-00.642,-01.723,-07.713,+00.072455,-00.032670,+00.050990*65"
1710358861.3418193,-50.815,-2.076,3.463,0.2229,0.0341,0.8996,0.024,-1.198,-7.909,0.048781,-0.081553,-0.027563,"$VNYMR,-050.815,-002.076,+003.463,+00.2229,+00.0341,+00.8996,+00.024,-01.198,-07.909,+00.048781,-00.081553,-00.027563*68"
1710358861.3567505,-50.814,-2.062,3.414,0.2251,0.0374,0.9009,0.903,-0.246,-8.137,-0.068726,0.077466,0.038874,"$VNYMR,-050.814,-002.062,+003.414,+00.2251,+00.0374,+00.9009,+00.903,-00.246,-08.137,-00.068726,+00.077466,+00.038874*6E"
1710358861.3833303,-50.715,-1.995,3.412,0.224,0.0351,0.9009,0.957,-0.556,-7.6,0.067683,-0.004608,0.064291,"$VNYMR,-050.715,-001.995,+003.412,+00.2240,+00.0351,+00.9009,+00.957,-00.556,-07.600,+00.067683,-00.004608,+00.064291*6F"
1710358861.4079213,-50.707,-2.129,3.562,0.224,0.0363,0.9009,0.591,0.066,-8.395,0.111398,-0.106878,0.007331,"$VNYMR,-050.707,-002.129,+003.562,+00.2240,+00.0363,+00.9009,+00.591,+00.066,-08.395,+00.111398,-00.106878,+00.007331*6C"
1710358861.4332461,-50.652,-2.221,3.656,0.2241,0.0396,0.9021,0.129,-0.172,-8.819,0.039273,-0.002984,0.052963,"$VNYMR,-050.652,-002.221,+003.656,+00.2241,+00.0396,+00.9021,+00.129,-00.172,-08.819,+00.039273,-00.002984,+00.052963*6C"
1710358861.4586518,-50.685,-2.137,3.608,0.224,0.0363,0.9009,0.421,0.681,-8.915,-0.040164,0.093355,-0.041243,"$VNYMR,-050.685,-002.137,+003.608,+00.2240,+00.0363,+00.9009,+00.421,+00.681,-08.915,-00.040164,+00.093355,-00.041243*6D"
1710358861.4844751,-50.72,-2.058,3.654,0.2229,0.0318,0.8958,0.928,0.777,-8.24,0.099355,-0.007698,-0.01045,"$VNYMR,-050.720,-002.058,+003.654,+00.2229,+00.0318,+00.8958,+00.928,+00.777,-08.240,+00.099355,-00.007698,-00.010450*67"
1710358861.5100965,-50.731,-2.239,3.924,0.2271,0.0351,0.901,0.792,0.317,-9.743,0.233848,-0.157736,0.001335,"$VNYMR,-050.731,-002.239,+003.924,+00.2271,+00.0351,+00.9010,+00.792,+00.317,-09.743,+00.233848,-00.157736,+00.001335*62"
1710358861.5355892,-50.715,-2.324,4.172,0.2262,0.0407,0.8996,0.326,0.407,-10.727,0.143653,-0.008468,0.054912,"$VNYMR,-050.715,-002.324,+004.172,+00.2262,+00.0407,+00.8996,+00.326,+00.407,-10.727,+00.143653,-00.008468,+00.054912*6E"
1710358861.561898,-50.558,-2.313,4.433,0.2252,0.0429,0.897,-0.761,-1.831,-11.322,0.195592,0.004826,0.084602,"$VNYMR,-050.558,-002.313,+004.433,+00.2252,+00.0429,+00.8970,-00.761,-01.831,-11.322,+00.195592,+00.004826,+00.084602*63"
1710358861.5879028,-50.728,-2.298,4.763,0.2263,0.0451,0.9034,-1.22,-2.135,-12.594,0.260156,0.008493,-0.294746,"$VNYMR,-050.728,-002.298,+004.763,+00.2263,+00.0451,+00.9034,-01.220,-02.135,-12.594,+00.260156,+00.008493,-00.294746*6F"
1710358861.6128943,-51.286,-2.146,5.112,0.2253,0.0451,0.8983,0.19,-0.17,-11.883,0.213427,0.096774,-0.410422,"$VNYMR,-051.286,-002.146,+005.112,+00.2253,+00.0451,+00.8983,+00.190,-00.170,-11.883,+00.213427,+00.096774,-00.410422*6C"
1710358861.6386268,-51.82,-2.108,5.489,0.2246,0.0585,0.9018,1.543,1.891,-11.877,0.302733,-0.086448,-0.259011,"$VNYMR,-051.820,-002.108,+005.489,+00.2246,+00.0585,+00.9018,+01.543,+01.891,-11.877,+00.302733,-00.086448,-00.259011*63"
1710358861.6650655,-51.77,-2.241,5.998,0.2259,0.0707,0.9004,0.804,-0.027,-12.248,0.363438,-0.071705,0.18383,"$VNYMR,-051.770,-002.241,+005.998,+00.2259,+00.0707,+00.9004,+00.804,-00.027,-12.248,+00.363438,-00.071705,+00.183830*6D"
1710358861.6908975,-51.43,-2.503,6.56,0.2289,0.0651,0.8981,-1.771,-2.54,-12.505,0.43991,-0.205062,0.23527,"$VNYMR,-051.430,-002.503,+006.560,+00.2289,+00.0651,+00.8981,-01.771,-02.540,-12.505,+00.439910,-00.205062,+00.235270*63"
1710358861.7169394,-51.311,-2.529,6.946,0.2281,0.0728,0.898,-3.087,-3.014,-13.644,0.125096,0.219424,-0.01286,"$VNYMR,-051.311,-002.529,+006.946,+00.2281,+00.0728,+00.8980,-03.087,-03.014,-13.644,+00.125096,+00.219424,-00.012860*67"
1710358861.742313,-51.372,-1.714,6.935,0.2228,0.0707,0.9041,-2.005,-1.736,-10.305,-0.115067,0.727352,-0.120091,"$VNYMR,-051.372,-001.714,+006.935,+00.2228,+00.0707,+00.9041,-02.005,-01.736,-10.305,-00.115067,+00.727352,-00.120091*6C"
1710358861.768103,-51.343,-0.67,6.641,0.2123,0.0642,0.9087,-0.796,-1.64,-6.99,-0.216081,0.656799,-0.03181,"$VNYMR,-051.343,-000.670,+006.641,+00.2123,+00.0642,+00.9087,-00.796,-01.640,-06.990,-00.216081,+00.656799,-00.031810*60"
1710358861.7936966,-51.296,-0.109,6.368,0.208,0.0577,0.9111,-0.747,-2.135,-6.606,-0.176741,0.191307,-0.012455,"$VNYMR,-051.296,-000.109,+006.368,+00.2080,+00.0577,+00.9111,-00.747,-02.135,-06.606,-00.176741,+00.191307,-00.012455*6A"
1710358861.8193538,-51.505,-0.241,6.218,0.2111,0.0598,0.9113,-1.446,-2.153,-8.231,-0.068384,-0.304792,-0.241971,"$VNYMR,-051.505,-000.241,+006.218,+00.2111,+00.0598,+00.9113,-01.446,-02.153,-08.231,-00.068384,-00.304792,-00.241971*65"
1710358861.84541,-51.968,-0.773,6.212,0.2142,0.0609,0.9025,-1.533,-0.414,-10.692,0.037338,-0.409992,-0.273569,"$VNYMR,-051.968,-000.773,+006.212,+00.2142,+00.0609,+00.9025,-01.533,-00.414,-10.692,+00.037338,-00.409992,-00.273569*6D"
1710358861.870661,-52.351,-1.145,6.303,0.2154,0.0664,0.905,-1.11,-0.251,-11.159,0.03735,-0.169308,-0.208128,"$VNYMR,-052.351,-001.145,+006.303,+00.2154,+00.0664,+00.9050,-01.110,-00.251,-11.159,+00.037350,-00.169308,-00.208128*69"
1710358861.8972723,-52.666,-1.065,6.251,0.2196,0.0663,0.904,-0.559,-1.311,-9.626,-0.091755,0.160448,-0.257547,"$VNYMR,-052.666,-001.065,+006.251,+00.2196,+00.0663,+00.9040,-00.559,-01.311,-09.626,-00.091755,+00.160448,-00.257547*6F"
1710358861.9220383,-53.098,-0.734,6.064,0.2144,0.0653,0.9037,0.124,-1.283,-6.829,-0.166043,0.176734,-0.358896,"$VNYMR,-053.098,-000.734,+006.064,+00.2144,+00.0653,+00.9037,+00.124,-01.283,-06.829,-00.166043,+00.176734,-00.358896*66"
1710358861.947953,-53.594,-0.663,5.908,0.2134,0.0676,0.9062,0.613,-0.63,-6.376,-0.076057,-0.083769,-0.311098,"$VNYMR,-053.594,-000.663,+005.908,+00.2134,+00.0676,+00.9062,+00.613,-00.630,-06.376,-00.076057,-00.083769,-00.311098*68"
1710358861.9741278,-54.031,-0.782,5.749,0.2164,0.0653,0.9026,0.588,-1.373,-7.303,-0.144201,-0.108133,-0.322928,"$VNYMR,-054.031,-000.782,+005.749,+00.2164,+00.0653,+00.9026,+00.588,-01.373,-07.303,-00.144201,-00.108133,-00.322928*6B"
1710358861.9989629,-54.493,-0.901,5.545,0.2155,0.0697,0.9025,0.753,-0.516,-8.146,-0.142324,-0.104553,-0.283711,"$VNYMR,-054.493,-000.901,+005.545,+00.2155,+00.0697,+00.9025,+00.753,-00.516,-08.146,-00.142324,-00.104553,-00.283711*69"
1710358862.0250497,-54.792,-1.059,5.434,0.2186,0.0686,0.9014,0.732,-0.688,-8.168,-0.045909,-0.174905,-0.162164,"$VNYMR,-054.792,-001.059,+005.434,+00.2186,+00.0686,+00.9014,+00.732,-00.688,-08.168,-00.045909,-00.174905,-00.162164*69"
1710358862.0506718,-54.953,-1.185,5.336,0.2227,0.0674,0.9029,0.568,-0.9,-8.577,-0.097161,-0.043135,-0.079483,"$VNYMR,-054.953,-001.185,+005.336,+00.2227,+00.0674,+00.9029,+00.568,-00.900,-08.577,-00.097161,-00.043135,-00.079483*6C"
1710358862.0763092,-55.055,-1.291,5.178,0.2216,0.0619,0.9041,0.712,-0.183,-9.246,-0.073045,-0.086693,-0.016394,"$VNYMR,-055.055,-001.291,+005.178,+00.2216,+00.0619,+00.9041,+00.712,-00.183,-09.246,-00.073045,-00.086693,-00.016394*64"
1710358862.1020865,-55.02,-1.402,5.167,0.2216,0.0619,0.9029,0.826,-0.696,-9.682,0.014223,-0.061412,0.030917,"$VNYMR,-055.020,-001.402,+005.167,+00.2216,+00.0619,+00.9029,+00.826,-00.696,-09.682,+00.014223,-00.061412,+00.030917*69"
1710358862.1281214,-54.861,-1.403,5.211,0.2236,0.0618,0.903,0.415,-0.887,-10.272,-0.008409,0.063265,0.167631,"$VNYMR,-054.861,-001.403,+005.211,+00.2236,+00.0618,+00.9030,+00.415,-00.887,-10.272,-00.008409,+00.063265,+00.167631*63"
1710358862.1539607,-54.614,-1.353,5.277,0.2206,0.0641,0.9041,-0.031,-1.604,-10.739,0.08522,0.023748,0.185354,"$VNYMR,-054.614,-001.353,+005.277,+00.2206,+00.0641,+00.9041,-00.031,-01.604,-10.739,+00.085220,+00.023748,+00.185354*64"
1710358862.1796856,-54.4,-1.477,5.414,0.2215,0.0619,0.9003,-0.513,-1.521,-11.812,0.085785,-0.121484,0.188665,"$VNYMR,-054.400,-001.477,+005.414,+00.2215,+00.0619,+00.9003,-00.513,-01.521,-11.812,+00.085785,-00.121484,+00.188665*68"
1710358862.2050242,-54.18,-1.545,5.349,0.2238,0.0685,0.9042,-0.931,-2.501,-12.366,-0.132131,0.029029,0.100229,"$VNYMR,-054.180,-001.545,+005.349,+00.2238,+00.0685,+00.9042,-00.931,-02.501,-12.366,-00.132131,+00.029029,+00.100229*61"
1710358862.2307034,-54.168,-1.524,5.117,0.2215,0.0585,0.8991,-0.532,-1.696,-10.615,-0.192144,-0.092858,-0.088122,"$VNYMR,-054.168,-001.524,+005.117,+00.2215,+00.0585,+00.8991,-00.532,-01.696,-10.615,-00.192144,-00.092858,-00.088122*6E"
1710358862.2566032,-54.165,-1.97,4.92,0.2246,0.0585,0.9006,-0.061,0.666,-12.127,-0.10213,-0.397483,0.152235,"$VNYMR,-054.165,-001.970,+004.920,+00.2246,+00.0585,+00.9006,-00.061,+00.666,-12.127,-00.102130,-00.397483,+00.152235*6F"
1710358862.282178,-53.781,-2.586,4.748,0.2296,0.0539,0.892,-0.58,0.004,-13.272,-0.090162,-0.405808,0.384744,"$VNYMR,-053.781,-002.586,+004.748,+00.2296,+00.0539,+00.8920,-00.580,+00.004,-13.272,-00.090162,-00.405808,+00.384744*6A"
1710358862.3079906,-53.268,-3.146,4.718,0.2337,0.0505,0.8986,-2.406,-0.839,-14.92,0.061076,-0.276245,0.37373,"$VNYMR,-053.268,-003.146,+004.718,+00.2337,+00.0505,+00.8986,-02.406,-00.839,-14.920,+00.061076,-00.276245,+00.373730*6D"
1710358862.3339772,-52.929,-3.134,4.805,0.2327,0.0516,0.8897,-3.352,-1.808,-13.726,0.065101,0.237525,0.136126,"$VNYMR,-052.929,-003.134,+004.805,+00.2327,+00.0516,+00.8897,-03.352,-01.808,-13.726,+00.065101,+00.237525,+00.136126*68"
1710358862.359782,-52.9,-2.369,4.707,0.2275,0.0506,0.8983,-2.838,-1.834,-9.916,-0.209535,0.726122,-0.133376,"$VNYMR,-052.900,-002.369,+004.707,+00.2275,+00.0506,+00.8983,-02.838,-01.834,-09.916,-00.209535,+00.726122,-00.133376*66"
1710358862.3853881,-53.327,-1.163,4.119,0.2191,0.0452,0.9043,-1.153,-0.469,-5.79,-0.522388,0.770995,-0.452668,"$VNYMR,-053.327,-001.163,+004.119,+00.2191,+00.0452,+00.9043,-01.153,-00.469,-05.790,-00.522388,+00.770995,-00.452668*68"
1710358862.4107556,-54.034,-0.547,3.52,0.2149,0.0442,0.9016,0.571,3.28,-5.032,-0.269072,0.07587,-0.467745,"$VNYMR,-054.034,-000.547,+003.520,+00.2149,+00.0442,+00.9016,+00.571,+03.280,-05.032,-00.269072,+00.075870,-00.467745*66"
1710358862.4360828,-54.274,-0.995,3.476,0.2183,0.0541,0.9054,0.705,3.828,-8.339,0.083302,-0.502346,0.086546,"$VNYMR,-054.274,-000.995,+003.476,+00.2183,+00.0541,+00.9054,+00.705,+03.828,-08.339,+00.083302,-00.502346,+00.086546*6A"
1710358862.46261,-53.954,-1.719,3.599,0.2211,0.0419,0.9044,-0.718,1.679,-11.528,0.0408,-0.380489,0.318141,"$VNYMR,-053.954,-001.719,+003.599,+00.2211,+00.0419,+00.9044,-00.718,+01.679,-11.528,+00.040800,-00.380489,+00.318141*6F"
1710358862.4880104,-53.51,-2.007,3.563,0.2273,0.0451,0.8933,-1.37,0.121,-11.068,0.017958,-0.079963,0.315075,"$VNYMR,-053.510,-002.007,+003.563,+00.2273,+00.0451,+00.8933,-01.370,+00.121,-11.068,+00.017958,-00.079963,+00.315075*65"
1710358862.5151637,-53.172,-2.094,3.689,0.2274,0.044,0.9022,-1.064,0.003,-10.275,0.125151,0.020927,0.228085,"$VNYMR,-053.172,-002.094,+003.689,+00.2274,+00.0440,+00.9022,-01.064,+00.003,-10.275,+00.125151,+00.020927,+00.228085*64"
1710358862.5570483,-52.836,-1.997,3.801,0.2263,0.0429,0.9021,-0.27,-1.486,-8.291,0.026259,0.071899,0.171311,"$VNYMR,-052.836,-001.997,+003.801,+00.2263,+00.0429,+00.9021,-00.270,-01.486,-08.291,+00.026259,+00.071899,+00.171311*62"
1710358862.6010172,-52.741,-1.925,3.77,0.2231,0.0418,0.8957,0.456,-1.047,-7.863,-0.061017,0.032697,-0.008449,"$VNYMR,-052.741,-001.925,+003.770,+00.2231,+00.0418,+00.8957,+00.456,-01.047,-07.863,-00.061017,+00.032697,-00.008449*6D"
1710358862.6446881,-52.848,-1.966,3.688,0.2253,0.044,0.9021,1.123,0.335,-7.426,-0.003466,-0.121288,-0.105583,"$VNYMR,-052.848,-001.966,+003.688,+00.2253,+00.0440,+00.9021,+01.123,+00.335,-07.426,-00.003466,-00.121288,-00.105583*62"
1710358862.6883824,-52.815,-2.303,3.905,0.2275,0.0506,0.9008,1.158,1.831,-9.074,0.257128,-0.237563,0.179871,"$VNYMR,-052.815,-002.303,+003.905,+00.2275,+00.0506,+00.9008,+01.158,+01.831,-09.074,+00.257128,-00.237563,+00.179871*68"
1710358862.7320294,-52.442,-2.545,4.207,0.2294,0.0439,0.9023,0.289,-0.399,-9.415,0.152778,-0.067469,0.276132,"$VNYMR,-052.442,-002.545,+004.207,+00.2294,+00.0439,+00.9023,+00.289,-00.399,-09.415,+00.152778,-00.067469,+00.276132*6F"
1710358862.7749486,-52.193,-2.55,4.323,0.2296,0.0495,0.8997,-0.023,-0.758,-8.948,0.084068,0.014367,0.102092,"$VNYMR,-052.193,-002.550,+004.323,+00.2296,+00.0495,+00.8997,-00.023,-00.758,-08.948,+00.084068,+00.014367,+00.102092*63"
1710358862.7990897,-52.142,-2.531,4.442,0.2286,0.0528,0.8958,0.031,-0.632,-8.764,0.115423,0.001238,-0.010318,"$VNYMR,-052.142,-002.531,+004.442,+00.2286,+00.0528,+00.8958,+00.031,-00.632,-08.764,+00.115423,+00.001238,-00.010318*6D"
1710358862.8160238,-52.242,-2.581,4.683,0.2305,0.0473,0.8998,0.459,-0.188,-9.345,0.171516,-0.023812,-0.086239,"$VNYMR,-052.242,-002.581,+004.683,+00.2305,+00.0473,+00.8998,+00.459,-00.188,-09.345,+00.171516,-00.023812,-00.086239*65"
1710358862.8424046,-52.388,-2.602,4.895,0.2295,0.0451,0.9061,0.88,0.698,-10.13,0.157319,-0.040286,-0.071231,"$VNYMR,-052.388,-002.602,+004.895,+00.2295,+00.0451,+00.9061,+00.880,+00.698,-10.130,+00.157319,-00.040286,-00.071231*6A"
1710358862.8685777,-52.388,-2.664,5.252,0.2285,0.0495,0.9009,0.157,-0.189,-11.579,0.297483,-0.036938,0.04048,"$VNYMR,-052.388,-002.664,+005.252,+00.2285,+00.0495,+00.9009,+00.157,-00.189,-11.579,+00.297483,-00.036938,+00.040480*6B"
1710358862.8943877,-52.365,-2.535,5.735,0.2331,0.0672,0.9034,-0.882,-1.785,-12.224,0.316451,0.192397,-0.06162,"$VNYMR,-052.365,-002.535,+005.735,+00.2331,+00.0672,+00.9034,-00.882,-01.785,-12.224,+00.316451,+00.192397,-00.061620*6C"
1710358862.9203546,-52.6,-1.907,6.016,0.2269,0.0662,0.9018,-0.482,-0.886,-10.912,0.128892,0.531742,-0.277207,"$VNYMR,-052.600,-001.907,+006.016,+00.2269,+00.0662,+00.9018,-00.482,-00.886,-10.912,+00.128892,+00.531742,-00.277207*66"
1710358862.9456754,-52.868,-1.2,6.236,0.2165,0.0664,0.9038,0.22,0.513,-8.66,0.212446,0.351189,-0.174106,"$VNYMR,-052.868,-001.200,+006.236,+00.2165,+00.0664,+00.9038,+00.220,+00.513,-08.660,+00.212446,+00.351189,-00.174106*61"
