Time,header.seq,header.stamp.secs,header.stamp.nsecs,header.frame_id,imu.header.seq,imu.header.stamp.secs,imu.header.stamp.nsecs,imu.header.frame_id,imu.orientation.x,imu.orientation.y,imu.orientation.z,imu.orientation.w,imu.orientation_covariance,imu.angular_velocity.x,imu.angular_velocity.y,imu.angular_velocity.z,imu.angular_velocity_covariance,imu.linear_acceleration.x,imu.linear_acceleration.y,imu.linear_acceleration.z,imu.linear_acceleration_covariance,mag_field.header.seq,mag_field.header.stamp.secs,mag_field.header.stamp.nsecs,mag_field.header.frame_id,mag_field.magnetic_field.x,mag_field.magnetic_field.y,mag_field.magnetic_field.z,mag_field.magnetic_field_covariance,vnymr_read
1711483461.5235565,1,1711483461,504337072,imu1_frame,0,0,0,imu1_frame,-0.008182972312135547,0.001990019771166232,-0.9149762483304161,0.4034198108380969,"(0.0, 0.0, 0.0, 0.0, 0.0, 0.0, 0.0, 0.0, 0.0)",-0.007393,-0.001693,-0.249232,"(0.0, 0.0, 0.0, 0.0, 0.0, 0.0, 0.0, 0.0, 0.0)",0.324,-0.406,-9.681,"(0.0, 0.0, 0.0, 0.0, 0.0, 0.0, 0.0, 0.0, 0.0)",0,0,0,imu1_frame,1.85e-05,4.03e-06,1.417e-05,"(0.0, 0.0, 0.0, 0.0, 0.0, 0.0, 0.0, 0.0, 0.0)","b'$VNYMR,-132.410,-000.766,-000.587,+00.1850,+00.0403,+00.1417,+00.324,-00.406,-09.681,-00.007393,-00.001693,-00.249232*60\r\n'"
1711483461.533445,2,1711483461,532780647,imu1_frame,0,0,0,imu1_frame,-0.008227196505707881,0.002022009425785481,-0.9162283940305159,0.4005667917935784,"(0.0, 0.0, 0.0, 0.0, 0.0, 0.0, 0.0, 0.0, 0.0)",-0.006919,-0.000191,-0.252795,"(0.0, 0.0, 0.0, 0.0, 0.0, 0.0, 0.0, 0.0, 0.0)",0.387,-0.363,-9.671,"(0.0, 0.0, 0.0, 0.0, 0.0, 0.0, 0.0, 0.0, 0.0)",0,0,0,imu1_frame,1.8959999999999998e-05,3.5299999999999997e-06,1.3800000000000002e-05,"(0.0, 0.0, 0.0, 0.0, 0.0, 0.0, 0.0, 0.0, 0.0)","b'$VNYMR,-132.767,-000.771,-000.590,+00.1896,+00.0353,+00.1380,+00.387,-00.363,-09.671,-00.006919,-00.000191,-00.252795*6F\r\n'"
1711483461.571779,3,1711483461,571023702,imu1_frame,0,0,0,imu1_frame,-0.008257620754749829,0.002089015173359781,-0.9174855784187054,0.3976778358279093,"(0.0, 0.0, 0.0, 0.0, 0.0, 0.0, 0.0, 0.0, 0.0)",-0.008395,-0.000184,-0.257099,"(0.0, 0.0, 0.0, 0.0, 0.0, 0.0, 0.0, 0.0, 0.0)",0.355,-0.494,-9.705,"(0.0, 0.0, 0.0, 0.0, 0.0, 0.0, 0.0, 0.0, 0.0)",0,0,0,imu1_frame,1.908e-05,4.3700000000000005e-06,1.366e-05,"(0.0, 0.0, 0.0, 0.0, 0.0, 0.0, 0.0, 0.0, 0.0)","b'$VNYMR,-133.128,-000.773,-000.596,+00.1908,+00.0437,+00.1366,+00.355,-00.494,-09.705,-00.008395,-00.000184,-00.257099*64\r\n'"
1711483461.587006,4,1711483461,586170196,imu1_frame,0,0,0,imu1_frame,-0.008301446466411955,0.0021884469992906512,-0.9187404659317312,0.3947686068393005,"(0.0, 0.0, 0.0, 0.0, 0.0, 0.0, 0.0, 0.0, 0.0)",-0.012895,0.001552,-0.255717,"(0.0, 0.0, 0.0, 0.0, 0.0, 0.0, 0.0, 0.0, 0.0)",0.301,-0.445,-9.708,"(0.0, 0.0, 0.0, 0.0, 0.0, 0.0, 0.0, 0.0, 0.0)",0,0,0,imu1_frame,1.943e-05,3.76e-06,1.3420000000000002e-05,"(0.0, 0.0, 0.0, 0.0, 0.0, 0.0, 0.0, 0.0, 0.0)","b'$VNYMR,-133.491,-000.775,-000.606,+00.1943,+00.0376,+00.1342,+00.301,-00.445,-09.708,-00.012895,+00.001552,-00.255717*6F\r\n'"
1711483461.6055758,5,1711483461,605182886,imu1_frame,0,0,0,imu1_frame,-0.00837093892288909,0.0023057867747307515,-0.9200030873347771,0.3918149180715009,"(0.0, 0.0, 0.0, 0.0, 0.0, 0.0, 0.0, 0.0, 0.0)",-0.014561,-0.000155,-0.260054,"(0.0, 0.0, 0.0, 0.0, 0.0, 0.0, 0.0, 0.0, 0.0)",0.306,-0.405,-9.588,"(0.0, 0.0, 0.0, 0.0, 0.0, 0.0, 0.0, 0.0, 0.0)",0,0,0,imu1_frame,1.932e-05,4.12e-06,1.3800000000000002e-05,"(0.0, 0.0, 0.0, 0.0, 0.0, 0.0, 0.0, 0.0, 0.0)","b'$VNYMR,-133.859,-000.779,-000.619,+00.1932,+00.0412,+00.1380,+00.306,-00.405,-09.588,-00.014561,-00.000155,-00.260054*63\r\n'"
1711483461.6310678,6,1711483461,630028963,imu1_frame,0,0,0,imu1_frame,-0.00846597846374059,0.0024410725924207655,-0.9212628534999457,0.38884074263686336,"(0.0, 0.0, 0.0, 0.0, 0.0, 0.0, 0.0, 0.0, 0.0)",-0.016325,-0.002159,-0.260903,"(0.0, 0.0, 0.0, 0.0, 0.0, 0.0, 0.0, 0.0, 0.0)",0.261,-0.347,-9.595,"(0.0, 0.0, 0.0, 0.0, 0.0, 0.0, 0.0, 0.0, 0.0)",0,0,0,imu1_frame,1.943e-05,4.12e-06,1.3420000000000002e-05,"(0.0, 0.0, 0.0, 0.0, 0.0, 0.0, 0.0, 0.0, 0.0)","b'$VNYMR,-134.229,-000.785,-000.635,+00.1943,+00.0412,+00.1342,+00.261,-00.347,-09.595,-00.016325,-00.002159,-00.260903*60\r\n'"
1711483461.6562614,7,1711483461,655889511,imu1_frame,0,0,0,imu1_frame,-0.008571580142988186,0.002581901873309172,-0.9225230325273507,0.38583819957737403,"(0.0, 0.0, 0.0, 0.0, 0.0, 0.0, 0.0, 0.0, 0.0)",-0.016074,-0.001915,-0.261966,"(0.0, 0.0, 0.0, 0.0, 0.0, 0.0, 0.0, 0.0, 0.0)",0.205,-0.193,-9.582,"(0.0, 0.0, 0.0, 0.0, 0.0, 0.0, 0.0, 0.0, 0.0)",0,0,0,imu1_frame,1.967e-05,4.72e-06,1.303e-05,"(0.0, 0.0, 0.0, 0.0, 0.0, 0.0, 0.0, 0.0, 0.0)","b'$VNYMR,-134.602,-000.792,-000.652,+00.1967,+00.0472,+00.1303,+00.205,-00.193,-09.582,-00.016074,-00.001915,-00.261966*66\r\n'"
1711483461.6816661,8,1711483461,681115150,imu1_frame,0,0,0,imu1_frame,-0.008663499949400978,0.0027384143866048165,-0.923783480592995,0.3828074265721154,"(0.0, 0.0, 0.0, 0.0, 0.0, 0.0, 0.0, 0.0, 0.0)",-0.015923,-0.001645,-0.266437,"(0.0, 0.0, 0.0, 0.0, 0.0, 0.0, 0.0, 0.0, 0.0)",0.243,-0.161,-9.596,"(0.0, 0.0, 0.0, 0.0, 0.0, 0.0, 0.0, 0.0, 0.0)",0,0,0,imu1_frame,1.873e-05,3.55e-06,1.09e-05,"(0.0, 0.0, 0.0, 0.0, 0.0, 0.0, 0.0, 0.0, 0.0)","b'$VNYMR,-134.978,-000.797,-000.670,+00.1873,+00.0355,+00.1090,+00.243,-00.161,-09.596,-00.015923,-00.001645,-00.266437*68\r\n'"
1711483461.710888,9,1711483461,710555791,imu1_frame,0,0,0,imu1_frame,-0.008747830107198592,0.0028794878516288937,-0.9250373168062618,0.37976459357607273,"(0.0, 0.0, 0.0, 0.0, 0.0, 0.0, 0.0, 0.0, 0.0)",-0.016066,0.000842,-0.26736,"(0.0, 0.0, 0.0, 0.0, 0.0, 0.0, 0.0, 0.0, 0.0)",0.323,-0.146,-9.61,"(0.0, 0.0, 0.0, 0.0, 0.0, 0.0, 0.0, 0.0, 0.0)",0,0,0,imu1_frame,1.9659999999999998e-05,3.2800000000000004e-06,1.278e-05,"(0.0, 0.0, 0.0, 0.0, 0.0, 0.0, 0.0, 0.0, 0.0)","b'$VNYMR,-135.355,-000.802,-000.686,+00.1966,+00.0328,+00.1278,+00.323,-00.146,-09.610,-00.016066,+00.000842,-00.267360*63\r\n'"
1711483461.7343066,10,1711483461,733723878,imu1_frame,0,0,0,imu1_frame,-0.008784255190176837,0.0030216487120208997,-0.9262912131607138,0.37669390082807014,"(0.0, 0.0, 0.0, 0.0, 0.0, 0.0, 0.0, 0.0, 0.0)",-0.012257,0.001357,-0.267787,"(0.0, 0.0, 0.0, 0.0, 0.0, 0.0, 0.0, 0.0, 0.0)",0.307,-0.221,-9.607,"(0.0, 0.0, 0.0, 0.0, 0.0, 0.0, 0.0, 0.0, 0.0)",0,0,0,imu1_frame,1.989e-05,3.51e-06,1.2790000000000001e-05,"(0.0, 0.0, 0.0, 0.0, 0.0, 0.0, 0.0, 0.0, 0.0)","b'$VNYMR,-135.735,-000.802,-000.700,+00.1989,+00.0351,+00.1279,+00.307,-00.221,-09.607,-00.012257,+00.001357,-00.267787*65\r\n'"
1711483461.755539,11,1711483461,754613876,imu1_frame,0,0,0,imu1_frame,-0.008801985102371915,0.0031429830536131528,-0.9275317608649959,0.3736274605840189,"(0.0, 0.0, 0.0, 0.0, 0.0, 0.0, 0.0, 0.0, 0.0)",-0.010477,0.003277,-0.26717,"(0.0, 0.0, 0.0, 0.0, 0.0, 0.0, 0.0, 0.0, 0.0)",0.185,-0.226,-9.572,"(0.0, 0.0, 0.0, 0.0, 0.0, 0.0, 0.0, 0.0, 0.0)",0,0,0,imu1_frame,2.06e-05,4.09e-06,1.2149999999999999e-05,"(0.0, 0.0, 0.0, 0.0, 0.0, 0.0, 0.0, 0.0, 0.0)","b'$VNYMR,-136.114,-000.801,-000.711,+00.2060,+00.0409,+00.1215,+00.185,-00.226,-09.572,-00.010477,+00.003277,-00.267170*6A\r\n'"
1711483461.7801306,12,1711483461,779744625,imu1_frame,0,0,0,imu1_frame,-0.008793154240737898,0.003246467152069494,-0.9287558380623451,0.3705735205794391,"(0.0, 0.0, 0.0, 0.0, 0.0, 0.0, 0.0, 0.0, 0.0)",-0.009901,0.004318,-0.263629,"(0.0, 0.0, 0.0, 0.0, 0.0, 0.0, 0.0, 0.0, 0.0)",0.276,-0.184,-9.597,"(0.0, 0.0, 0.0, 0.0, 0.0, 0.0, 0.0, 0.0, 0.0)",0,0,0,imu1_frame,2.024e-05,3.38e-06,1.2540000000000002e-05,"(0.0, 0.0, 0.0, 0.0, 0.0, 0.0, 0.0, 0.0, 0.0)","b'$VNYMR,-136.491,-000.798,-000.719,+00.2024,+00.0338,+00.1254,+00.276,-00.184,-09.597,-00.009901,+00.004318,-00.263629*6E\r\n'"
1711483461.8138893,13,1711483461,813537359,imu1_frame,0,0,0,imu1_frame,-0.008803233843714172,0.0033514724397026973,-0.9299633377906918,0.3675315783324943,"(0.0, 0.0, 0.0, 0.0, 0.0, 0.0, 0.0, 0.0, 0.0)",-0.011009,0.001873,-0.261509,"(0.0, 0.0, 0.0, 0.0, 0.0, 0.0, 0.0, 0.0, 0.0)",0.278,-0.2,-9.625,"(0.0, 0.0, 0.0, 0.0, 0.0, 0.0, 0.0, 0.0, 0.0)",0,0,0,imu1_frame,2.071e-05,3.61e-06,1.229e-05,"(0.0, 0.0, 0.0, 0.0, 0.0, 0.0, 0.0, 0.0, 0.0)","b'$VNYMR,-136.866,-000.797,-000.728,+00.2071,+00.0361,+00.1229,+00.278,-00.200,-09.625,-00.011009,+00.001873,-00.261509*62\r\n'"
1711483461.8284361,14,1711483461,828059196,imu1_frame,0,0,0,imu1_frame,-0.008843549106616026,0.0034630535386357612,-0.9311511569017649,0.3645097006938116,"(0.0, 0.0, 0.0, 0.0, 0.0, 0.0, 0.0, 0.0, 0.0)",-0.012513,0.000733,-0.260303,"(0.0, 0.0, 0.0, 0.0, 0.0, 0.0, 0.0, 0.0, 0.0)",0.152,-0.205,-9.671,"(0.0, 0.0, 0.0, 0.0, 0.0, 0.0, 0.0, 0.0, 0.0)",0,0,0,imu1_frame,2.059e-05,3.13e-06,1.2559999999999998e-05,"(0.0, 0.0, 0.0, 0.0, 0.0, 0.0, 0.0, 0.0, 0.0)","b'$VNYMR,-137.238,-000.799,-000.739,+00.2059,+00.0313,+00.1256,+00.152,-00.205,-09.671,-00.012513,+00.000733,-00.260303*6E\r\n'"
1711483461.8751402,15,1711483461,874319791,imu1_frame,0,0,0,imu1_frame,-0.008907732828634562,0.0035652317207837824,-0.9323195759924042,0.3615081598525469,"(0.0, 0.0, 0.0, 0.0, 0.0, 0.0, 0.0, 0.0, 0.0)",-0.012853,-0.001262,-0.257035,"(0.0, 0.0, 0.0, 0.0, 0.0, 0.0, 0.0, 0.0, 0.0)",0.15,-0.119,-9.612,"(0.0, 0.0, 0.0, 0.0, 0.0, 0.0, 0.0, 0.0, 0.0)",0,0,0,imu1_frame,2.094e-05,3.24e-06,1.244e-05,"(0.0, 0.0, 0.0, 0.0, 0.0, 0.0, 0.0, 0.0, 0.0)","b'$VNYMR,-137.607,-000.804,-000.750,+00.2094,+00.0324,+00.1244,+00.150,-00.119,-09.612,-00.012853,-00.001262,-00.257035*60\r\n'"
1711483461.8795843,16,1711483461,878943681,imu1_frame,0,0,0,imu1_frame,-0.008986464611500699,0.0036338752099730406,-0.9334720401099829,0.3585191609072674,"(0.0, 0.0, 0.0, 0.0, 0.0, 0.0, 0.0, 0.0, 0.0)",-0.010027,-0.002261,-0.257522,"(0.0, 0.0, 0.0, 0.0, 0.0, 0.0, 0.0, 0.0, 0.0)",0.161,-0.169,-9.64,"(0.0, 0.0, 0.0, 0.0, 0.0, 0.0, 0.0, 0.0, 0.0)",0,0,0,imu1_frame,2.106e-05,3.4799999999999997e-06,1.231e-05,"(0.0, 0.0, 0.0, 0.0, 0.0, 0.0, 0.0, 0.0, 0.0)","b'$VNYMR,-137.974,-000.812,-000.758,+00.2106,+00.0348,+00.1231,+00.161,-00.169,-09.640,-00.010027,-00.002261,-00.257522*6E\r\n'"
1711483461.9078417,17,1711483461,907323122,imu1_frame,0,0,0,imu1_frame,-0.009055539314952345,0.0036785909211501213,-0.9346150125753697,0.35552671270284564,"(0.0, 0.0, 0.0, 0.0, 0.0, 0.0, 0.0, 0.0, 0.0)",-0.008421,-0.002915,-0.255947,"(0.0, 0.0, 0.0, 0.0, 0.0, 0.0, 0.0, 0.0, 0.0)",0.088,-0.1,-9.642,"(0.0, 0.0, 0.0, 0.0, 0.0, 0.0, 0.0, 0.0, 0.0)",0,0,0,imu1_frame,2.093e-05,2.52e-06,1.1e-05,"(0.0, 0.0, 0.0, 0.0, 0.0, 0.0, 0.0, 0.0, 0.0)","b'$VNYMR,-138.341,-000.820,-000.763,+00.2093,+00.0252,+00.1100,+00.088,-00.100,-09.642,-00.008421,-00.002915,-00.255947*67\r\n'"
1711483461.928866,18,1711483461,928200960,imu1_frame,0,0,0,imu1_frame,-0.009132584478042109,0.003720708936717659,-0.935748349520676,0.35253053569171944,"(0.0, 0.0, 0.0, 0.0, 0.0, 0.0, 0.0, 0.0, 0.0)",-0.006846,-0.003712,-0.259089,"(0.0, 0.0, 0.0, 0.0, 0.0, 0.0, 0.0, 0.0, 0.0)",0.074,-0.127,-9.583,"(0.0, 0.0, 0.0, 0.0, 0.0, 0.0, 0.0, 0.0, 0.0)",0,0,0,imu1_frame,2.105e-05,2.88e-06,1.048e-05,"(0.0, 0.0, 0.0, 0.0, 0.0, 0.0, 0.0, 0.0, 0.0)","b'$VNYMR,-138.708,-000.829,-000.768,+00.2105,+00.0288,+00.1048,+00.074,-00.127,-09.583,-00.006846,-00.003712,-00.259089*6C\r\n'"
1711483461.966747,19,1711483461,966198444,imu1_frame,0,0,0,imu1_frame,-0.00920941885717022,0.0037634383572522356,-0.9368751264272929,0.3495225609569268,"(0.0, 0.0, 0.0, 0.0, 0.0, 0.0, 0.0, 0.0, 0.0)",-0.007198,-0.003633,-0.259151,"(0.0, 0.0, 0.0, 0.0, 0.0, 0.0, 0.0, 0.0, 0.0)",0.056,-0.086,-9.561,"(0.0, 0.0, 0.0, 0.0, 0.0, 0.0, 0.0, 0.0, 0.0)",0,0,0,imu1_frame,2.105e-05,3e-06,1.048e-05,"(0.0, 0.0, 0.0, 0.0, 0.0, 0.0, 0.0, 0.0, 0.0)","b'$VNYMR,-139.076,-000.838,-000.773,+00.2105,+00.0300,+00.1048,+00.056,-00.086,-09.561,-00.007198,-00.003633,-00.259151*63\r\n'"
1711483461.9782753,20,1711483461,977916479,imu1_frame,0,0,0,imu1_frame,-0.009257638941511763,0.003779925943140803,-0.9379894174014249,0.34651964031498744,"(0.0, 0.0, 0.0, 0.0, 0.0, 0.0, 0.0, 0.0, 0.0)",-0.00397,-0.001963,-0.259442,"(0.0, 0.0, 0.0, 0.0, 0.0, 0.0, 0.0, 0.0, 0.0)",0.027,-0.101,-9.538,"(0.0, 0.0, 0.0, 0.0, 0.0, 0.0, 0.0, 0.0, 0.0)",0,0,0,imu1_frame,2.117e-05,2.52e-06,9.829999999999999e-06,"(0.0, 0.0, 0.0, 0.0, 0.0, 0.0, 0.0, 0.0, 0.0)","b'$VNYMR,-139.443,-000.845,-000.774,+00.2117,+00.0252,+00.0983,+00.027,-00.101,-09.538,-00.003970,-00.001963,-00.259442*67\r\n'"
1711483462.0114975,21,1711483462,10996341,imu1_frame,0,0,0,imu1_frame,-0.009311011302842025,0.0037856486815589343,-0.9390970701463452,0.34350497343579783,"(0.0, 0.0, 0.0, 0.0, 0.0, 0.0, 0.0, 0.0, 0.0)",-0.004051,-0.00255,-0.260042,"(0.0, 0.0, 0.0, 0.0, 0.0, 0.0, 0.0, 0.0, 0.0)",0.18,-0.109,-9.526,"(0.0, 0.0, 0.0, 0.0, 0.0, 0.0, 0.0, 0.0, 0.0)",0,0,0,imu1_frame,2.187e-05,2.5e-06,9.73e-06,"(0.0, 0.0, 0.0, 0.0, 0.0, 0.0, 0.0, 0.0, 0.0)","b'$VNYMR,-139.811,-000.853,-000.774,+00.2187,+00.0250,+00.0973,+00.180,-00.109,-09.526,-00.004051,-00.002550,-00.260042*68\r\n'"
1711483462.028721,22,1711483462,28238773,imu1_frame,0,0,0,imu1_frame,-0.009375683684284078,0.0037968224040914717,-0.9401890118385002,0.3405030142498425,"(0.0, 0.0, 0.0, 0.0, 0.0, 0.0, 0.0, 0.0, 0.0)",-0.004535,-0.003565,-0.25709,"(0.0, 0.0, 0.0, 0.0, 0.0, 0.0, 0.0, 0.0, 0.0)",0.11,-0.099,-9.534,"(0.0, 0.0, 0.0, 0.0, 0.0, 0.0, 0.0, 0.0, 0.0)",0,0,0,imu1_frame,2.1629999999999998e-05,2.75e-06,1.011e-05,"(0.0, 0.0, 0.0, 0.0, 0.0, 0.0, 0.0, 0.0, 0.0)","b'$VNYMR,-140.177,-000.862,-000.775,+00.2163,+00.0275,+00.1011,+00.110,-00.099,-09.534,-00.004535,-00.003565,-00.257090*64\r\n'"
1711483462.053753,23,1711483462,53246974,imu1_frame,0,0,0,imu1_frame,-0.009465086647202853,0.0037994446237990293,-0.9412653335882494,0.33751377474158467,"(0.0, 0.0, 0.0, 0.0, 0.0, 0.0, 0.0, 0.0, 0.0)",-0.00525,-0.006062,-0.256074,"(0.0, 0.0, 0.0, 0.0, 0.0, 0.0, 0.0, 0.0, 0.0)",0.055,-0.078,-9.555,"(0.0, 0.0, 0.0, 0.0, 0.0, 0.0, 0.0, 0.0, 0.0)",0,0,0,imu1_frame,2.1740000000000002e-05,2.0199999999999997e-06,1.025e-05,"(0.0, 0.0, 0.0, 0.0, 0.0, 0.0, 0.0, 0.0, 0.0)","b'$VNYMR,-140.541,-000.874,-000.776,+00.2174,+00.0202,+00.1025,+00.055,-00.078,-09.555,-00.005250,-00.006062,-00.256074*61\r\n'"
1711483462.0823903,24,1711483462,81725358,imu1_frame,0,0,0,imu1_frame,-0.009576950911997367,0.0038130292060053234,-0.9423232294050089,0.33454547395416706,"(0.0, 0.0, 0.0, 0.0, 0.0, 0.0, 0.0, 0.0, 0.0)",-0.005379,-0.007974,-0.253682,"(0.0, 0.0, 0.0, 0.0, 0.0, 0.0, 0.0, 0.0, 0.0)",0.03,-0.071,-9.565,"(0.0, 0.0, 0.0, 0.0, 0.0, 0.0, 0.0, 0.0, 0.0)",0,0,0,imu1_frame,2.1859999999999997e-05,2.26e-06,9.73e-06,"(0.0, 0.0, 0.0, 0.0, 0.0, 0.0, 0.0, 0.0, 0.0)","b'$VNYMR,-140.902,-000.888,-000.779,+00.2186,+00.0226,+00.0973,+00.030,-00.071,-09.565,-00.005379,-00.007974,-00.253682*60\r\n'"
1711483462.1040218,25,1711483462,103213787,imu1_frame,0,0,0,imu1_frame,-0.009713685175870283,0.003818249306023777,-0.9433571480490142,0.3316147712593206,"(0.0, 0.0, 0.0, 0.0, 0.0, 0.0, 0.0, 0.0, 0.0)",-0.006679,-0.009102,-0.250471,"(0.0, 0.0, 0.0, 0.0, 0.0, 0.0, 0.0, 0.0, 0.0)",0.028,-0.068,-9.582,"(0.0, 0.0, 0.0, 0.0, 0.0, 0.0, 0.0, 0.0, 0.0)",0,0,0,imu1_frame,2.233e-05,2.73e-06,1.0009999999999999e-05,"(0.0, 0.0, 0.0, 0.0, 0.0, 0.0, 0.0, 0.0, 0.0)","b'$VNYMR,-141.258,-000.905,-000.782,+00.2233,+00.0273,+00.1001,+00.028,-00.068,-09.582,-00.006679,-00.009102,-00.250471*61\r\n'"
1711483462.1288579,26,1711483462,128257274,imu1_frame,0,0,0,imu1_frame,-0.009847709332669395,0.003815856797378756,-0.9443733612971975,0.32870566823532876,"(0.0, 0.0, 0.0, 0.0, 0.0, 0.0, 0.0, 0.0, 0.0)",-0.00589,-0.007789,-0.247069,"(0.0, 0.0, 0.0, 0.0, 0.0, 0.0, 0.0, 0.0, 0.0)",0.115,0.012,-9.709,"(0.0, 0.0, 0.0, 0.0, 0.0, 0.0, 0.0, 0.0, 0.0)",0,0,0,imu1_frame,2.233e-05,2.61e-06,9.75e-06,"(0.0, 0.0, 0.0, 0.0, 0.0, 0.0, 0.0, 0.0, 0.0)","b'$VNYMR,-141.611,-000.922,-000.784,+00.2233,+00.0261,+00.0975,+00.115,+00.012,-09.709,-00.005890,-00.007789,-00.247069*6C\r\n'"
1711483462.1658797,27,1711483462,165385723,imu1_frame,0,0,0,imu1_frame,-0.009956810131458316,0.003795264450845746,-0.9453807798904237,0.3257938595393233,"(0.0, 0.0, 0.0, 0.0, 0.0, 0.0, 0.0, 0.0, 0.0)",-2.2e-05,-0.007699,-0.247925,"(0.0, 0.0, 0.0, 0.0, 0.0, 0.0, 0.0, 0.0, 0.0)",0.06,-0.037,-9.764,"(0.0, 0.0, 0.0, 0.0, 0.0, 0.0, 0.0, 0.0, 0.0)",0,0,0,imu1_frame,2.2570000000000002e-05,3.32e-06,9.49e-06,"(0.0, 0.0, 0.0, 0.0, 0.0, 0.0, 0.0, 0.0, 0.0)","b'$VNYMR,-141.964,-000.937,-000.783,+00.2257,+00.0332,+00.0949,+00.060,-00.037,-09.764,-00.000022,-00.007699,-00.247925*64\r\n'"
1711483462.1795845,28,1711483462,178670167,imu1_frame,0,0,0,imu1_frame,-0.01001065250879811,0.003720323428329807,-0.9463712091373181,0.3229047546040588,"(0.0, 0.0, 0.0, 0.0, 0.0, 0.0, 0.0, 0.0, 0.0)",0.003072,-0.00245,-0.246621,"(0.0, 0.0, 0.0, 0.0, 0.0, 0.0, 0.0, 0.0, 0.0)",0.059,0.031,-9.697,"(0.0, 0.0, 0.0, 0.0, 0.0, 0.0, 0.0, 0.0, 0.0)",0,0,0,imu1_frame,2.2800000000000002e-05,2.5999999999999997e-06,9.24e-06,"(0.0, 0.0, 0.0, 0.0, 0.0, 0.0, 0.0, 0.0, 0.0)","b'$VNYMR,-142.314,-000.948,-000.774,+00.2280,+00.0260,+00.0924,+00.059,+00.031,-09.697,+00.003072,-00.002450,-00.246621*62\r\n'"
1711483462.2034345,29,1711483462,203142642,imu1_frame,0,0,0,imu1_frame,-0.010004272943456039,0.003629440223161182,-0.9473532190540692,0.3200134685203609,"(0.0, 0.0, 0.0, 0.0, 0.0, 0.0, 0.0, 0.0, 0.0)",0.005999,0.000844,-0.247042,"(0.0, 0.0, 0.0, 0.0, 0.0, 0.0, 0.0, 0.0, 0.0)",0.028,-0.033,-9.672,"(0.0, 0.0, 0.0, 0.0, 0.0, 0.0, 0.0, 0.0, 0.0)",0,0,0,imu1_frame,2.268e-05,2.24e-06,9.24e-06,"(0.0, 0.0, 0.0, 0.0, 0.0, 0.0, 0.0, 0.0, 0.0)","b'$VNYMR,-142.664,-000.953,-000.761,+00.2268,+00.0224,+00.0924,+00.028,-00.033,-09.672,+00.005999,+00.000844,-00.247042*64\r\n'"
1711483462.2305427,30,1711483462,229728937,imu1_frame,0,0,0,imu1_frame,-0.009943416354443284,0.003538438658862671,-0.9483212109762756,0.31713638822366297,"(0.0, 0.0, 0.0, 0.0, 0.0, 0.0, 0.0, 0.0, 0.0)",0.006632,0.005094,-0.245893,"(0.0, 0.0, 0.0, 0.0, 0.0, 0.0, 0.0, 0.0, 0.0)",0.089,-0.049,-9.666,"(0.0, 0.0, 0.0, 0.0, 0.0, 0.0, 0.0, 0.0, 0.0)",0,0,0,imu1_frame,2.303e-05,2.71e-06,1.03e-05,"(0.0, 0.0, 0.0, 0.0, 0.0, 0.0, 0.0, 0.0, 0.0)","b'$VNYMR,-143.012,-000.952,-000.746,+00.2303,+00.0271,+00.1030,+00.089,-00.049,-09.666,+00.006632,+00.005094,-00.245893*6F\r\n'"
1711483462.2546175,31,1711483462,253741025,imu1_frame,0,0,0,imu1_frame,-0.009839074008521681,0.003452448489473859,-0.9492779927767763,0.31426512000503154,"(0.0, 0.0, 0.0, 0.0, 0.0, 0.0, 0.0, 0.0, 0.0)",0.007246,0.005828,-0.24485,"(0.0, 0.0, 0.0, 0.0, 0.0, 0.0, 0.0, 0.0, 0.0)",0.041,-0.101,-9.669,"(0.0, 0.0, 0.0, 0.0, 0.0, 0.0, 0.0, 0.0, 0.0)",0,0,0,imu1_frame,2.315e-05,2.47e-06,9.91e-06,"(0.0, 0.0, 0.0, 0.0, 0.0, 0.0, 0.0, 0.0, 0.0)","b'$VNYMR,-143.359,-000.946,-000.730,+00.2315,+00.0247,+00.0991,+00.041,-00.101,-09.669,+00.007246,+00.005828,-00.244850*67\r\n'"
1711483462.2809837,32,1711483462,280021905,imu1_frame,0,0,0,imu1_frame,-0.0097352931569484,0.0033931999792346833,-0.9502178745864319,0.3114156403867556,"(0.0, 0.0, 0.0, 0.0, 0.0, 0.0, 0.0, 0.0, 0.0)",0.004258,0.007409,-0.241246,"(0.0, 0.0, 0.0, 0.0, 0.0, 0.0, 0.0, 0.0, 0.0)",0.079,-0.118,-9.625,"(0.0, 0.0, 0.0, 0.0, 0.0, 0.0, 0.0, 0.0, 0.0)",0,0,0,imu1_frame,2.303e-05,2.47e-06,9.78e-06,"(0.0, 0.0, 0.0, 0.0, 0.0, 0.0, 0.0, 0.0, 0.0)","b'$VNYMR,-143.703,-000.939,-000.717,+00.2303,+00.0247,+00.0978,+00.079,-00.118,-09.625,+00.004258,+00.007409,-00.241246*63\r\n'"
1711483462.3075628,33,1711483462,306643486,imu1_frame,0,0,0,imu1_frame,-0.00964839406025942,0.003355399228060945,-0.9511436674100018,0.3085796068017624,"(0.0, 0.0, 0.0, 0.0, 0.0, 0.0, 0.0, 0.0, 0.0)",0.002578,0.00693,-0.24057,"(0.0, 0.0, 0.0, 0.0, 0.0, 0.0, 0.0, 0.0, 0.0)",0.029,-0.14,-9.588,"(0.0, 0.0, 0.0, 0.0, 0.0, 0.0, 0.0, 0.0, 0.0)",0,0,0,imu1_frame,2.373e-05,2.4500000000000003e-06,9.94e-06,"(0.0, 0.0, 0.0, 0.0, 0.0, 0.0, 0.0, 0.0, 0.0)","b'$VNYMR,-144.045,-000.933,-000.707,+00.2373,+00.0245,+00.0994,+00.029,-00.140,-09.588,+00.002578,+00.006930,-00.240570*67\r\n'"
1711483462.3526251,34,1711483462,350986957,imu1_frame,0,0,0,imu1_frame,-0.009600434134959432,0.003322883901780953,-0.9520553900420504,0.3057569695017184,"(0.0, 0.0, 0.0, 0.0, 0.0, 0.0, 0.0, 0.0, 0.0)",0.001474,0.001898,-0.239922,"(0.0, 0.0, 0.0, 0.0, 0.0, 0.0, 0.0, 0.0, 0.0)",0.117,-0.173,-9.635,"(0.0, 0.0, 0.0, 0.0, 0.0, 0.0, 0.0, 0.0, 0.0)",0,0,0,imu1_frame,2.303e-05,2.47e-06,9.51e-06,"(0.0, 0.0, 0.0, 0.0, 0.0, 0.0, 0.0, 0.0, 0.0)","b'$VNYMR,-144.385,-000.931,-000.699,+00.2303,+00.0247,+00.0951,+00.117,-00.173,-09.635,+00.001474,+00.001898,-00.239922*66\r\n'"
1711483462.3641372,35,1711483462,362135410,imu1_frame,0,0,0,imu1_frame,-0.009596647968560012,0.003312633491362674,-0.9529531231341228,0.30294764550337877,"(0.0, 0.0, 0.0, 0.0, 0.0, 0.0, 0.0, 0.0, 0.0)",-0.004902,0.001343,-0.236665,"(0.0, 0.0, 0.0, 0.0, 0.0, 0.0, 0.0, 0.0, 0.0)",0.063,-0.2,-9.656,"(0.0, 0.0, 0.0, 0.0, 0.0, 0.0, 0.0, 0.0, 0.0)",0,0,0,imu1_frame,2.349e-05,2.22e-06,9.93e-06,"(0.0, 0.0, 0.0, 0.0, 0.0, 0.0, 0.0, 0.0, 0.0)","b'$VNYMR,-144.723,-000.933,-000.695,+00.2349,+00.0222,+00.0993,+00.063,-00.200,-09.656,-00.004902,+00.001343,-00.236665*62\r\n'"
1711483462.4105928,36,1711483462,409226655,imu1_frame,0,0,0,imu1_frame,-0.009641637266557703,0.0033691921814143506,-0.953834288456084,0.30015968673414645,"(0.0, 0.0, 0.0, 0.0, 0.0, 0.0, 0.0, 0.0, 0.0)",-0.009387,-0.00178,-0.235111,"(0.0, 0.0, 0.0, 0.0, 0.0, 0.0, 0.0, 0.0, 0.0)",0.078,-0.193,-9.685,"(0.0, 0.0, 0.0, 0.0, 0.0, 0.0, 0.0, 0.0, 0.0)",0,0,0,imu1_frame,2.373e-05,2.81e-06,1.072e-05,"(0.0, 0.0, 0.0, 0.0, 0.0, 0.0, 0.0, 0.0, 0.0)","b'$VNYMR,-145.058,-000.938,-000.700,+00.2373,+00.0281,+00.1072,+00.078,-00.193,-09.685,-00.009387,-00.001780,-00.235111*64\r\n'"
1711483462.4214268,37,1711483462,419954776,imu1_frame,0,0,0,imu1_frame,-0.009729657308869653,0.003476234416919525,-0.9546965454587671,0.2974016739227045,"(0.0, 0.0, 0.0, 0.0, 0.0, 0.0, 0.0, 0.0, 0.0)",-0.013616,-0.003268,-0.23421,"(0.0, 0.0, 0.0, 0.0, 0.0, 0.0, 0.0, 0.0, 0.0)",0.109,-0.232,-9.711,"(0.0, 0.0, 0.0, 0.0, 0.0, 0.0, 0.0, 0.0, 0.0)",0,0,0,imu1_frame,2.385e-05,3.04e-06,1.164e-05,"(0.0, 0.0, 0.0, 0.0, 0.0, 0.0, 0.0, 0.0, 0.0)","b'$VNYMR,-145.389,-000.946,-000.712,+00.2385,+00.0304,+00.1164,+00.109,-00.232,-09.711,-00.013616,-00.003268,-00.234210*65\r\n'"
1711483462.4908042,38,1711483462,488989114,imu1_frame,0,0,0,imu1_frame,-0.009821655974139209,0.0036280783281006186,-0.9555507126124172,0.2946408114085222,"(0.0, 0.0, 0.0, 0.0, 0.0, 0.0, 0.0, 0.0, 0.0)",-0.01704,-0.002098,-0.233898,"(0.0, 0.0, 0.0, 0.0, 0.0, 0.0, 0.0, 0.0, 0.0)",0.039,-0.236,-9.711,"(0.0, 0.0, 0.0, 0.0, 0.0, 0.0, 0.0, 0.0, 0.0)",0,0,0,imu1_frame,2.385e-05,3.1699999999999997e-06,1.085e-05,"(0.0, 0.0, 0.0, 0.0, 0.0, 0.0, 0.0, 0.0, 0.0)","b'$VNYMR,-145.720,-000.953,-000.729,+00.2385,+00.0317,+00.1085,+00.039,-00.236,-09.711,-00.017040,-00.002098,-00.233898*64\r\n'"
1711483462.5015461,39,1711483462,499915599,imu1_frame,0,0,0,imu1_frame,-0.009907828818187844,0.003763616286749683,-0.9563918478721323,0.291894336094902,"(0.0, 0.0, 0.0, 0.0, 0.0, 0.0, 0.0, 0.0, 0.0)",-0.012842,-0.001694,-0.232043,"(0.0, 0.0, 0.0, 0.0, 0.0, 0.0, 0.0, 0.0, 0.0)",0.165,-0.175,-9.601,"(0.0, 0.0, 0.0, 0.0, 0.0, 0.0, 0.0, 0.0, 0.0)",0,0,0,imu1_frame,2.4429999999999998e-05,2.43e-06,1.1020000000000001e-05,"(0.0, 0.0, 0.0, 0.0, 0.0, 0.0, 0.0, 0.0, 0.0)","b'$VNYMR,-146.049,-000.960,-000.744,+00.2443,+00.0243,+00.1102,+00.165,-00.175,-09.601,-00.012842,-00.001694,-00.232043*62\r\n'"
1711483462.5138457,40,1711483462,512337446,imu1_frame,0,0,0,imu1_frame,-0.009964730462676156,0.0038354621370819317,-0.9572279208787481,0.2891378578933414,"(0.0, 0.0, 0.0, 0.0, 0.0, 0.0, 0.0, 0.0, 0.0)",-0.007751,-0.003089,-0.232167,"(0.0, 0.0, 0.0, 0.0, 0.0, 0.0, 0.0, 0.0, 0.0)",0.186,-0.057,-9.531,"(0.0, 0.0, 0.0, 0.0, 0.0, 0.0, 0.0, 0.0, 0.0)",0,0,0,imu1_frame,2.466e-05,2.54e-06,1.09e-05,"(0.0, 0.0, 0.0, 0.0, 0.0, 0.0, 0.0, 0.0, 0.0)","b'$VNYMR,-146.379,-000.966,-000.751,+00.2466,+00.0254,+00.1090,+00.186,-00.057,-09.531,-00.007751,-00.003089,-00.232167*61\r\n'"
1711483462.5248938,41,1711483462,523980379,imu1_frame,0,0,0,imu1_frame,-0.009995445535200105,0.003851642247456357,-0.9580563363381324,0.2863796646462625,"(0.0, 0.0, 0.0, 0.0, 0.0, 0.0, 0.0, 0.0, 0.0)",-0.003906,-0.001645,-0.229449,"(0.0, 0.0, 0.0, 0.0, 0.0, 0.0, 0.0, 0.0, 0.0)",0.211,0.029,-9.55,"(0.0, 0.0, 0.0, 0.0, 0.0, 0.0, 0.0, 0.0, 0.0)",0,0,0,imu1_frame,2.408e-05,2.68e-06,1.126e-05,"(0.0, 0.0, 0.0, 0.0, 0.0, 0.0, 0.0, 0.0, 0.0)","b'$VNYMR,-146.709,-000.971,-000.751,+00.2408,+00.0268,+00.1126,+00.211,+00.029,-09.550,-00.003906,-00.001645,-00.229449*65\r\n'"
1711483462.537818,42,1711483462,536064147,imu1_frame,0,0,0,imu1_frame,-0.010029634278645644,0.0038486445838767304,-0.958871864432075,0.28363593208840826,"(0.0, 0.0, 0.0, 0.0, 0.0, 0.0, 0.0, 0.0, 0.0)",-0.002867,-0.002546,-0.225939,"(0.0, 0.0, 0.0, 0.0, 0.0, 0.0, 0.0, 0.0, 0.0)",0.288,0.116,-9.601,"(0.0, 0.0, 0.0, 0.0, 0.0, 0.0, 0.0, 0.0, 0.0)",0,0,0,imu1_frame,2.467e-05,3.5000000000000004e-06,1.0889999999999999e-05,"(0.0, 0.0, 0.0, 0.0, 0.0, 0.0, 0.0, 0.0, 0.0)","b'$VNYMR,-147.037,-000.977,-000.749,+00.2467,+00.0350,+00.1089,+00.288,+00.116,-09.601,-00.002867,-00.002546,-00.225939*6E\r\n'"
1711483462.557507,43,1711483462,555738210,imu1_frame,0,0,0,imu1_frame,-0.010048326943426769,0.0038228515132199053,-0.959669882202886,0.2809237158458586,"(0.0, 0.0, 0.0, 0.0, 0.0, 0.0, 0.0, 0.0, 0.0)",0.000113,-0.003053,-0.223797,"(0.0, 0.0, 0.0, 0.0, 0.0, 0.0, 0.0, 0.0, 0.0)",0.208,0.111,-9.704,"(0.0, 0.0, 0.0, 0.0, 0.0, 0.0, 0.0, 0.0, 0.0)",0,0,0,imu1_frame,2.466e-05,2.7799999999999996e-06,1.168e-05,"(0.0, 0.0, 0.0, 0.0, 0.0, 0.0, 0.0, 0.0, 0.0)","b'$VNYMR,-147.361,-000.982,-000.744,+00.2466,+00.0278,+00.1168,+00.208,+00.111,-09.704,+00.000113,-00.003053,-00.223797*64\r\n'"
1711483462.579484,44,1711483462,579061269,imu1_frame,0,0,0,imu1_frame,-0.010044795417870117,0.003812161998750233,-0.9604409346487823,0.27827644628477244,"(0.0, 0.0, 0.0, 0.0, 0.0, 0.0, 0.0, 0.0, 0.0)",-0.000334,0.000886,-0.220097,"(0.0, 0.0, 0.0, 0.0, 0.0, 0.0, 0.0, 0.0, 0.0)",0.198,-0.08,-9.727,"(0.0, 0.0, 0.0, 0.0, 0.0, 0.0, 0.0, 0.0, 0.0)",0,0,0,imu1_frame,2.478e-05,2.7799999999999996e-06,1.1550000000000001e-05,"(0.0, 0.0, 0.0, 0.0, 0.0, 0.0, 0.0, 0.0, 0.0)","b'$VNYMR,-147.677,-000.984,-000.740,+00.2478,+00.0278,+00.1155,+00.198,-00.080,-09.727,-00.000334,+00.000886,-00.220097*61\r\n'"
1711483462.6153479,45,1711483462,614886999,imu1_frame,0,0,0,imu1_frame,-0.010034381011958974,0.0037757926969289044,-0.9611903488230689,0.2756776521892987,"(0.0, 0.0, 0.0, 0.0, 0.0, 0.0, 0.0, 0.0, 0.0)",0.002071,0.001524,-0.216121,"(0.0, 0.0, 0.0, 0.0, 0.0, 0.0, 0.0, 0.0, 0.0)",0.207,-0.202,-9.732,"(0.0, 0.0, 0.0, 0.0, 0.0, 0.0, 0.0, 0.0, 0.0)",0,0,0,imu1_frame,2.501e-05,2.89e-06,1.169e-05,"(0.0, 0.0, 0.0, 0.0, 0.0, 0.0, 0.0, 0.0, 0.0)","b'$VNYMR,-147.987,-000.986,-000.733,+00.2501,+00.0289,+00.1169,+00.207,-00.202,-09.732,+00.002071,+00.001524,-00.216121*6B\r\n'"
1711483462.637597,46,1711483462,637196540,imu1_frame,0,0,0,imu1_frame,-0.009998013447226535,0.003710323795090551,-0.96192582167595,0.2731025207087864,"(0.0, 0.0, 0.0, 0.0, 0.0, 0.0, 0.0, 0.0, 0.0)",0.003268,0.001444,-0.216173,"(0.0, 0.0, 0.0, 0.0, 0.0, 0.0, 0.0, 0.0, 0.0)",0.154,-0.25,-9.715,"(0.0, 0.0, 0.0, 0.0, 0.0, 0.0, 0.0, 0.0, 0.0)",0,0,0,imu1_frame,2.5359999999999998e-05,2.76e-06,1.132e-05,"(0.0, 0.0, 0.0, 0.0, 0.0, 0.0, 0.0, 0.0, 0.0)","b'$VNYMR,-148.294,-000.986,-000.722,+00.2536,+00.0276,+00.1132,+00.154,-00.250,-09.715,+00.003268,+00.001444,-00.216173*6B\r\n'"
1711483462.6533403,47,1711483462,652912378,imu1_frame,0,0,0,imu1_frame,-0.009981262391027363,0.0036482780455718076,-0.9626518785860496,0.2705335933357135,"(0.0, 0.0, 0.0, 0.0, 0.0, 0.0, 0.0, 0.0, 0.0)",0.001965,0.000911,-0.216639,"(0.0, 0.0, 0.0, 0.0, 0.0, 0.0, 0.0, 0.0, 0.0)",0.158,-0.324,-9.796,"(0.0, 0.0, 0.0, 0.0, 0.0, 0.0, 0.0, 0.0, 0.0)",0,0,0,imu1_frame,2.5240000000000002e-05,3e-06,1.197e-05,"(0.0, 0.0, 0.0, 0.0, 0.0, 0.0, 0.0, 0.0, 0.0)","b'$VNYMR,-148.600,-000.988,-000.712,+00.2524,+00.0300,+00.1197,+00.158,-00.324,-09.796,+00.001965,+00.000911,-00.216639*67\r\n'"
1711483462.6812096,48,1711483462,680738925,imu1_frame,0,0,0,imu1_frame,-0.009971929235782506,0.0036113909093427226,-0.9633709722450539,0.26796247557939157,"(0.0, 0.0, 0.0, 0.0, 0.0, 0.0, 0.0, 0.0, 0.0)",-0.00238,-0.000233,-0.216359,"(0.0, 0.0, 0.0, 0.0, 0.0, 0.0, 0.0, 0.0, 0.0)",0.124,-0.351,-9.753,"(0.0, 0.0, 0.0, 0.0, 0.0, 0.0, 0.0, 0.0, 0.0)",0,0,0,imu1_frame,2.444e-05,3.51e-06,9.04e-06,"(0.0, 0.0, 0.0, 0.0, 0.0, 0.0, 0.0, 0.0, 0.0)","b'$VNYMR,-148.906,-000.990,-000.705,+00.2444,+00.0351,+00.0904,+00.124,-00.351,-09.753,-00.002380,-00.000233,-00.216359*6B\r\n'"
1711483462.704279,49,1711483462,703966379,imu1_frame,0,0,0,imu1_frame,-0.009987488896258813,0.003631056028676011,-0.9640829155686745,0.26538876654121496,"(0.0, 0.0, 0.0, 0.0, 0.0, 0.0, 0.0, 0.0, 0.0)",-0.008326,-6e-05,-0.213592,"(0.0, 0.0, 0.0, 0.0, 0.0, 0.0, 0.0, 0.0, 0.0)",0.147,-0.29,-9.715,"(0.0, 0.0, 0.0, 0.0, 0.0, 0.0, 0.0, 0.0, 0.0)",0,0,0,imu1_frame,2.501e-05,2.54e-06,9.47e-06,"(0.0, 0.0, 0.0, 0.0, 0.0, 0.0, 0.0, 0.0, 0.0)","b'$VNYMR,-149.212,-000.993,-000.705,+00.2501,+00.0254,+00.0947,+00.147,-00.290,-09.715,-00.008326,-00.000060,-00.213592*69\r\n'"
1711483462.7303126,50,1711483462,729920625,imu1_frame,0,0,0,imu1_frame,-0.010008388508815157,0.003703553263626968,-0.9647855553325572,0.2628211332338582,"(0.0, 0.0, 0.0, 0.0, 0.0, 0.0, 0.0, 0.0, 0.0)",-0.010586,0.002331,-0.215934,"(0.0, 0.0, 0.0, 0.0, 0.0, 0.0, 0.0, 0.0, 0.0)",0.196,-0.323,-9.713,"(0.0, 0.0, 0.0, 0.0, 0.0, 0.0, 0.0, 0.0, 0.0)",0,0,0,imu1_frame,2.559e-05,2.52e-06,1.12e-05,"(0.0, 0.0, 0.0, 0.0, 0.0, 0.0, 0.0, 0.0, 0.0)","b'$VNYMR,-149.517,-000.995,-000.711,+00.2559,+00.0252,+00.1120,+00.196,-00.323,-09.713,-00.010586,+00.002331,-00.215934*68\r\n'"
1711483462.7521996,51,1711483462,751937627,imu1_frame,0,0,0,imu1_frame,-0.01003878361878722,0.0038456872674388245,-0.9654766048261587,0.2602678601868651,"(0.0, 0.0, 0.0, 0.0, 0.0, 0.0, 0.0, 0.0, 0.0)",-0.015632,0.002152,-0.213898,"(0.0, 0.0, 0.0, 0.0, 0.0, 0.0, 0.0, 0.0, 0.0)",0.215,-0.339,-9.643,"(0.0, 0.0, 0.0, 0.0, 0.0, 0.0, 0.0, 0.0, 0.0)",0,0,0,imu1_frame,2.5480000000000003e-05,2.76e-06,1.185e-05,"(0.0, 0.0, 0.0, 0.0, 0.0, 0.0, 0.0, 0.0, 0.0)","b'$VNYMR,-149.820,-000.996,-000.725,+00.2548,+00.0276,+00.1185,+00.215,-00.339,-09.643,-00.015632,+00.002152,-00.213898*64\r\n'"
1711483462.778556,52,1711483462,778168678,imu1_frame,0,0,0,imu1_frame,-0.010047771275416258,0.00401144409003892,-0.9661564915101799,0.25772967334292207,"(0.0, 0.0, 0.0, 0.0, 0.0, 0.0, 0.0, 0.0, 0.0)",-0.016762,0.003826,-0.211764,"(0.0, 0.0, 0.0, 0.0, 0.0, 0.0, 0.0, 0.0, 0.0)",0.269,-0.25,-9.526,"(0.0, 0.0, 0.0, 0.0, 0.0, 0.0, 0.0, 0.0, 0.0)",0,0,0,imu1_frame,2.5719999999999998e-05,3.59e-06,1.263e-05,"(0.0, 0.0, 0.0, 0.0, 0.0, 0.0, 0.0, 0.0, 0.0)","b'$VNYMR,-150.121,-000.994,-000.741,+00.2572,+00.0359,+00.1263,+00.269,-00.250,-09.526,-00.016762,+00.003826,-00.211764*6D\r\n'"
1711483462.8034668,53,1711483462,802839756,imu1_frame,0,0,0,imu1_frame,-0.010055993567295385,0.004177185898753635,-0.9668274580799271,0.255198147356223,"(0.0, 0.0, 0.0, 0.0, 0.0, 0.0, 0.0, 0.0, 0.0)",-0.01469,0.004711,-0.211476,"(0.0, 0.0, 0.0, 0.0, 0.0, 0.0, 0.0, 0.0, 0.0)",0.282,-0.272,-9.431,"(0.0, 0.0, 0.0, 0.0, 0.0, 0.0, 0.0, 0.0, 0.0)",0,0,0,imu1_frame,2.5940000000000002e-05,2.74e-06,1.239e-05,"(0.0, 0.0, 0.0, 0.0, 0.0, 0.0, 0.0, 0.0, 0.0)","b'$VNYMR,-150.421,-000.992,-000.757,+00.2594,+00.0274,+00.1239,+00.282,-00.272,-09.431,-00.014690,+00.004711,-00.211476*60\r\n'"
1711483462.828859,54,1711483462,828493118,imu1_frame,0,0,0,imu1_frame,-0.010063039648326897,0.004307019511248752,-0.9674918639993609,0.25266514977536586,"(0.0, 0.0, 0.0, 0.0, 0.0, 0.0, 0.0, 0.0, 0.0)",-0.011827,0.001256,-0.209851,"(0.0, 0.0, 0.0, 0.0, 0.0, 0.0, 0.0, 0.0, 0.0)",0.317,-0.122,-9.445,"(0.0, 0.0, 0.0, 0.0, 0.0, 0.0, 0.0, 0.0, 0.0)",0,0,0,imu1_frame,2.617e-05,2.74e-06,1.24e-05,"(0.0, 0.0, 0.0, 0.0, 0.0, 0.0, 0.0, 0.0, 0.0)","b'$VNYMR,-150.721,-000.991,-000.769,+00.2617,+00.0274,+00.1240,+00.317,-00.122,-09.445,-00.011827,+00.001256,-00.209851*67\r\n'"
1711483462.8545234,55,1711483462,854123830,imu1_frame,0,0,0,imu1_frame,-0.01009049286741291,0.004413381063971156,-0.9681473422453735,0.25013881690872486,"(0.0, 0.0, 0.0, 0.0, 0.0, 0.0, 0.0, 0.0, 0.0)",-0.00961,-0.000275,-0.21094,"(0.0, 0.0, 0.0, 0.0, 0.0, 0.0, 0.0, 0.0, 0.0)",0.283,0.019,-9.54,"(0.0, 0.0, 0.0, 0.0, 0.0, 0.0, 0.0, 0.0, 0.0)",0,0,0,imu1_frame,2.6179999999999997e-05,3.82e-06,1.239e-05,"(0.0, 0.0, 0.0, 0.0, 0.0, 0.0, 0.0, 0.0, 0.0)","b'$VNYMR,-151.020,-000.993,-000.779,+00.2618,+00.0382,+00.1239,+00.283,+00.019,-09.540,-00.009610,-00.000275,-00.210940*61\r\n'"
1711483462.8795948,56,1711483462,879126787,imu1_frame,0,0,0,imu1_frame,-0.010110976739032933,0.004494551577188303,-0.9687963347827938,0.2476110435076101,"(0.0, 0.0, 0.0, 0.0, 0.0, 0.0, 0.0, 0.0, 0.0)",-0.009967,-0.000606,-0.211434,"(0.0, 0.0, 0.0, 0.0, 0.0, 0.0, 0.0, 0.0, 0.0)",0.274,-0.082,-9.602,"(0.0, 0.0, 0.0, 0.0, 0.0, 0.0, 0.0, 0.0, 0.0)",0,0,0,imu1_frame,2.629e-05,2.8500000000000002e-06,1.28e-05,"(0.0, 0.0, 0.0, 0.0, 0.0, 0.0, 0.0, 0.0, 0.0)","b'$VNYMR,-151.319,-000.995,-000.786,+00.2629,+00.0285,+00.1280,+00.274,-00.082,-09.602,-00.009967,-00.000606,-00.211434*61\r\n'"
1711483462.9047916,57,1711483462,904325485,imu1_frame,0,0,0,imu1_frame,-0.010139605044908415,0.004573630383691133,-0.9694365264699806,0.24508996605423322,"(0.0, 0.0, 0.0, 0.0, 0.0, 0.0, 0.0, 0.0, 0.0)",-0.008716,0.001374,-0.210344,"(0.0, 0.0, 0.0, 0.0, 0.0, 0.0, 0.0, 0.0, 0.0)",0.333,-0.168,-9.658,"(0.0, 0.0, 0.0, 0.0, 0.0, 0.0, 0.0, 0.0, 0.0)",0,0,0,imu1_frame,2.629e-05,2.74e-06,1.1360000000000001e-05,"(0.0, 0.0, 0.0, 0.0, 0.0, 0.0, 0.0, 0.0, 0.0)","b'$VNYMR,-151.617,-000.998,-000.793,+00.2629,+00.0274,+00.1136,+00.333,-00.168,-09.658,-00.008716,+00.001374,-00.210344*64\r\n'"
1711483462.929801,58,1711483462,929204463,imu1_frame,0,0,0,imu1_frame,-0.010167847801515022,0.004616997148076005,-0.9700723734318046,0.24255904129264116,"(0.0, 0.0, 0.0, 0.0, 0.0, 0.0, 0.0, 0.0, 0.0)",-0.004441,-0.001733,-0.211793,"(0.0, 0.0, 0.0, 0.0, 0.0, 0.0, 0.0, 0.0, 0.0)",0.199,-0.309,-9.761,"(0.0, 0.0, 0.0, 0.0, 0.0, 0.0, 0.0, 0.0, 0.0)",0,0,0,imu1_frame,2.652e-05,2.13e-06,1.111e-05,"(0.0, 0.0, 0.0, 0.0, 0.0, 0.0, 0.0, 0.0, 0.0)","b'$VNYMR,-151.916,-001.002,-000.796,+00.2652,+00.0213,+00.1111,+00.199,-00.309,-09.761,-00.004441,-00.001733,-00.211793*63\r\n'"
1711483462.9599211,59,1711483462,959461688,imu1_frame,0,0,0,imu1_frame,-0.010187646656182088,0.004590678872937173,-0.9707018745307529,0.2400270991066979,"(0.0, 0.0, 0.0, 0.0, 0.0, 0.0, 0.0, 0.0, 0.0)",0.000325,0.000115,-0.210574,"(0.0, 0.0, 0.0, 0.0, 0.0, 0.0, 0.0, 0.0, 0.0)",0.244,-0.199,-9.71,"(0.0, 0.0, 0.0, 0.0, 0.0, 0.0, 0.0, 0.0, 0.0)",0,0,0,imu1_frame,2.6989999999999997e-05,3.2e-06,1.138e-05,"(0.0, 0.0, 0.0, 0.0, 0.0, 0.0, 0.0, 0.0, 0.0)","b'$VNYMR,-152.215,-001.007,-000.791,+00.2699,+00.0320,+00.1138,+00.244,-00.199,-09.710,+00.000325,+00.000115,-00.210574*61\r\n'"
1711483462.9786544,60,1711483462,978036880,imu1_frame,0,0,0,imu1_frame,-0.010199390919523864,0.004494966932685716,-0.9713333075226158,0.237460256452149,"(0.0, 0.0, 0.0, 0.0, 0.0, 0.0, 0.0, 0.0, 0.0)",0.006044,-0.002988,-0.216751,"(0.0, 0.0, 0.0, 0.0, 0.0, 0.0, 0.0, 0.0, 0.0)",0.24,-0.316,-9.639,"(0.0, 0.0, 0.0, 0.0, 0.0, 0.0, 0.0, 0.0, 0.0)",0,0,0,imu1_frame,2.652e-05,2.3699999999999998e-06,1.15e-05,"(0.0, 0.0, 0.0, 0.0, 0.0, 0.0, 0.0, 0.0, 0.0)","b'$VNYMR,-152.518,-001.013,-000.778,+00.2652,+00.0237,+00.1150,+00.240,-00.316,-09.639,+00.006044,-00.002988,-00.216751*65\r\n'"
1711483463.0037413,61,1711483463,3152132,imu1_frame,0,0,0,imu1_frame,-0.010216187245218044,0.004344802588423869,-0.9719682883720302,0.23484973623103003,"(0.0, 0.0, 0.0, 0.0, 0.0, 0.0, 0.0, 0.0, 0.0)",0.009693,-0.003826,-0.218792,"(0.0, 0.0, 0.0, 0.0, 0.0, 0.0, 0.0, 0.0, 0.0)",0.218,-0.24,-9.734,"(0.0, 0.0, 0.0, 0.0, 0.0, 0.0, 0.0, 0.0, 0.0)",0,0,0,imu1_frame,2.687e-05,2.48e-06,1.191e-05,"(0.0, 0.0, 0.0, 0.0, 0.0, 0.0, 0.0, 0.0, 0.0)","b'$VNYMR,-152.826,-001.021,-000.759,+00.2687,+00.0248,+00.1191,+00.218,-00.240,-09.734,+00.009693,-00.003826,-00.218792*6F\r\n'"
1711483463.0296462,62,1711483463,29048681,imu1_frame,0,0,0,imu1_frame,-0.010239944097773639,0.004220224821835619,-0.9725961062830878,0.23223726507669734,"(0.0, 0.0, 0.0, 0.0, 0.0, 0.0, 0.0, 0.0, 0.0)",0.006044,-0.002402,-0.217977,"(0.0, 0.0, 0.0, 0.0, 0.0, 0.0, 0.0, 0.0, 0.0)",0.221,-0.384,-9.742,"(0.0, 0.0, 0.0, 0.0, 0.0, 0.0, 0.0, 0.0, 0.0)",0,0,0,imu1_frame,2.687e-05,2.8400000000000003e-06,1.151e-05,"(0.0, 0.0, 0.0, 0.0, 0.0, 0.0, 0.0, 0.0, 0.0)","b'$VNYMR,-153.134,-001.029,-000.743,+00.2687,+00.0284,+00.1151,+00.221,-00.384,-09.742,+00.006044,-00.002402,-00.217977*6B\r\n'"
1711483463.053301,63,1711483463,53008079,imu1_frame,0,0,0,imu1_frame,-0.010257333310491184,0.0041426395661354545,-0.9732248372473982,0.22958885385740738,"(0.0, 0.0, 0.0, 0.0, 0.0, 0.0, 0.0, 0.0, 0.0)",0.001465,-0.001326,-0.219757,"(0.0, 0.0, 0.0, 0.0, 0.0, 0.0, 0.0, 0.0, 0.0)",0.34,-0.442,-9.622,"(0.0, 0.0, 0.0, 0.0, 0.0, 0.0, 0.0, 0.0, 0.0)",0,0,0,imu1_frame,2.71e-05,2.35e-06,1.0739999999999999e-05,"(0.0, 0.0, 0.0, 0.0, 0.0, 0.0, 0.0, 0.0, 0.0)","b'$VNYMR,-153.446,-001.035,-000.732,+00.2710,+00.0235,+00.1074,+00.340,-00.442,-09.622,+00.001465,-00.001326,-00.219757*6F\r\n'"
1711483463.078855,64,1711483463,78417301,imu1_frame,0,0,0,imu1_frame,-0.010265605525985814,0.004139022968432276,-0.9738442694379378,0.22694674422635133,"(0.0, 0.0, 0.0, 0.0, 0.0, 0.0, 0.0, 0.0, 0.0)",-0.004379,0.001633,-0.21899,"(0.0, 0.0, 0.0, 0.0, 0.0, 0.0, 0.0, 0.0, 0.0)",0.318,-0.416,-9.58,"(0.0, 0.0, 0.0, 0.0, 0.0, 0.0, 0.0, 0.0, 0.0)",0,0,0,imu1_frame,2.7450000000000003e-05,1.98e-06,1.154e-05,"(0.0, 0.0, 0.0, 0.0, 0.0, 0.0, 0.0, 0.0, 0.0)","b'$VNYMR,-153.757,-001.038,-000.729,+00.2745,+00.0198,+00.1154,+00.318,-00.416,-09.580,-00.004379,+00.001633,-00.218990*61\r\n'"
1711483463.1026964,65,1711483463,102410316,imu1_frame,0,0,0,imu1_frame,-0.010237327451963298,0.0041707851944842046,-0.9744567416600967,0.2243030546173867,"(0.0, 0.0, 0.0, 0.0, 0.0, 0.0, 0.0, 0.0, 0.0)",-0.004774,0.004262,-0.219872,"(0.0, 0.0, 0.0, 0.0, 0.0, 0.0, 0.0, 0.0, 0.0)",0.315,-0.45,-9.455,"(0.0, 0.0, 0.0, 0.0, 0.0, 0.0, 0.0, 0.0, 0.0)",0,0,0,imu1_frame,2.7450000000000003e-05,2.58e-06,1.219e-05,"(0.0, 0.0, 0.0, 0.0, 0.0, 0.0, 0.0, 0.0, 0.0)","b'$VNYMR,-154.068,-001.036,-000.729,+00.2745,+00.0258,+00.1219,+00.315,-00.450,-09.455,-00.004774,+00.004262,-00.219872*60\r\n'"
1711483463.1285405,66,1711483463,127945184,imu1_frame,0,0,0,imu1_frame,-0.010202231175236144,0.004213224839545465,-0.9750698012154924,0.22162365842364107,"(0.0, 0.0, 0.0, 0.0, 0.0, 0.0, 0.0, 0.0, 0.0)",-0.004916,0.005444,-0.222288,"(0.0, 0.0, 0.0, 0.0, 0.0, 0.0, 0.0, 0.0, 0.0)",0.349,-0.395,-9.448,"(0.0, 0.0, 0.0, 0.0, 0.0, 0.0, 0.0, 0.0, 0.0)",0,0,0,imu1_frame,2.734e-05,2.47e-06,1.1400000000000001e-05,"(0.0, 0.0, 0.0, 0.0, 0.0, 0.0, 0.0, 0.0, 0.0)","b'$VNYMR,-154.383,-001.033,-000.730,+00.2734,+00.0247,+00.1140,+00.349,-00.395,-09.448,-00.004916,+00.005444,-00.222288*69\r\n'"
1711483463.1537855,67,1711483463,153466701,imu1_frame,0,0,0,imu1_frame,-0.01017538189946062,0.004253857722372981,-0.9756811597805741,0.21891697226782458,"(0.0, 0.0, 0.0, 0.0, 0.0, 0.0, 0.0, 0.0, 0.0)",-0.005863,0.003549,-0.226043,"(0.0, 0.0, 0.0, 0.0, 0.0, 0.0, 0.0, 0.0, 0.0)",0.335,-0.441,-9.428,"(0.0, 0.0, 0.0, 0.0, 0.0, 0.0, 0.0, 0.0, 0.0)",0,0,0,imu1_frame,2.757e-05,2.22e-06,1.207e-05,"(0.0, 0.0, 0.0, 0.0, 0.0, 0.0, 0.0, 0.0, 0.0)","b'$VNYMR,-154.701,-001.031,-000.731,+00.2757,+00.0222,+00.1207,+00.335,-00.441,-09.428,-00.005863,+00.003549,-00.226043*68\r\n'"
1711483463.1783664,68,1711483463,177734375,imu1_frame,0,0,0,imu1_frame,-0.01017571848581406,0.004297496771249644,-0.9762904332988531,0.21618273780285133,"(0.0, 0.0, 0.0, 0.0, 0.0, 0.0, 0.0, 0.0, 0.0)",-0.00589,0.00075,-0.227454,"(0.0, 0.0, 0.0, 0.0, 0.0, 0.0, 0.0, 0.0, 0.0)",0.39,-0.345,-9.476,"(0.0, 0.0, 0.0, 0.0, 0.0, 0.0, 0.0, 0.0, 0.0)",0,0,0,imu1_frame,2.803e-05,2.4500000000000003e-06,1.169e-05,"(0.0, 0.0, 0.0, 0.0, 0.0, 0.0, 0.0, 0.0, 0.0)","b'$VNYMR,-155.022,-001.032,-000.733,+00.2803,+00.0245,+00.1169,+00.390,-00.345,-09.476,-00.005890,+00.000750,-00.227454*6B\r\n'"
1711483463.2033358,69,1711483463,202890157,imu1_frame,0,0,0,imu1_frame,-0.010205152012012473,0.004352719015151126,-0.9768936359296666,0.2134378897705444,"(0.0, 0.0, 0.0, 0.0, 0.0, 0.0, 0.0, 0.0, 0.0)",-0.008695,-0.002722,-0.227823,"(0.0, 0.0, 0.0, 0.0, 0.0, 0.0, 0.0, 0.0, 0.0)",0.485,-0.28,-9.551,"(0.0, 0.0, 0.0, 0.0, 0.0, 0.0, 0.0, 0.0, 0.0)",0,0,0,imu1_frame,2.804e-05,2.69e-06,1.182e-05,"(0.0, 0.0, 0.0, 0.0, 0.0, 0.0, 0.0, 0.0, 0.0)","b'$VNYMR,-155.344,-001.036,-000.737,+00.2804,+00.0269,+00.1182,+00.485,-00.280,-09.551,-00.008695,-00.002722,-00.227823*60\r\n'"
1711483463.2298772,70,1711483463,229332447,imu1_frame,0,0,0,imu1_frame,-0.010275829602991232,0.0044349026394913,-0.9774887026402725,0.210690709750538,"(0.0, 0.0, 0.0, 0.0, 0.0, 0.0, 0.0, 0.0, 0.0)",-0.013682,-0.004594,-0.226071,"(0.0, 0.0, 0.0, 0.0, 0.0, 0.0, 0.0, 0.0, 0.0)",0.434,-0.203,-9.603,"(0.0, 0.0, 0.0, 0.0, 0.0, 0.0, 0.0, 0.0, 0.0)",0,0,0,imu1_frame,2.804e-05,2.69e-06,1.209e-05,"(0.0, 0.0, 0.0, 0.0, 0.0, 0.0, 0.0, 0.0, 0.0)","b'$VNYMR,-155.666,-001.044,-000.745,+00.2804,+00.0269,+00.1209,+00.434,-00.203,-09.603,-00.013682,-00.004594,-00.226071*6B\r\n'"
1711483463.2532368,71,1711483463,252928972,imu1_frame,0,0,0,imu1_frame,-0.010355317617560148,0.004559922811321403,-0.9780703940915152,0.20796701349652136,"(0.0, 0.0, 0.0, 0.0, 0.0, 0.0, 0.0, 0.0, 0.0)",-0.01555,-0.005237,-0.224938,"(0.0, 0.0, 0.0, 0.0, 0.0, 0.0, 0.0, 0.0, 0.0)",0.451,-0.047,-9.756,"(0.0, 0.0, 0.0, 0.0, 0.0, 0.0, 0.0, 0.0, 0.0)",0,0,0,imu1_frame,2.8149999999999996e-05,2.4400000000000004e-06,1.1959999999999999e-05,"(0.0, 0.0, 0.0, 0.0, 0.0, 0.0, 0.0, 0.0, 0.0)","b'$VNYMR,-155.985,-001.052,-000.758,+00.2815,+00.0244,+00.1196,+00.451,-00.047,-09.756,-00.015550,-00.005237,-00.224938*6B\r\n'"
1711483463.2835214,72,1711483463,283185482,imu1_frame,0,0,0,imu1_frame,-0.010425689017371075,0.004687120112433726,-0.9786427578919478,0.20525030655082419,"(0.0, 0.0, 0.0, 0.0, 0.0, 0.0, 0.0, 0.0, 0.0)",-0.01504,-0.003324,-0.221376,"(0.0, 0.0, 0.0, 0.0, 0.0, 0.0, 0.0, 0.0, 0.0)",0.403,-0.106,-9.72,"(0.0, 0.0, 0.0, 0.0, 0.0, 0.0, 0.0, 0.0, 0.0)",0,0,0,imu1_frame,2.8270000000000002e-05,2.4400000000000004e-06,1.118e-05,"(0.0, 0.0, 0.0, 0.0, 0.0, 0.0, 0.0, 0.0, 0.0)","b'$VNYMR,-156.303,-001.059,-000.771,+00.2827,+00.0244,+00.1118,+00.403,-00.106,-09.720,-00.015040,-00.003324,-00.221376*6D\r\n'"
1711483463.3039691,73,1711483463,303661584,imu1_frame,0,0,0,imu1_frame,-0.010500652642913362,0.004795425075993117,-0.9791987406515577,0.20257484172230578,"(0.0, 0.0, 0.0, 0.0, 0.0, 0.0, 0.0, 0.0, 0.0)",-0.011951,-0.003993,-0.220811,"(0.0, 0.0, 0.0, 0.0, 0.0, 0.0, 0.0, 0.0, 0.0)",0.368,-0.151,-9.728,"(0.0, 0.0, 0.0, 0.0, 0.0, 0.0, 0.0, 0.0, 0.0)",0,0,0,imu1_frame,2.8270000000000002e-05,2.92e-06,1.131e-05,"(0.0, 0.0, 0.0, 0.0, 0.0, 0.0, 0.0, 0.0, 0.0)","b'$VNYMR,-156.616,-001.067,-000.782,+00.2827,+00.0292,+00.1131,+00.368,-00.151,-09.728,-00.011951,-00.003993,-00.220811*6D\r\n'"
1711483463.328828,74,1711483463,328100442,imu1_frame,0,0,0,imu1_frame,-0.010571612600923801,0.004887073939524416,-0.9797474834345101,0.1998980395578445,"(0.0, 0.0, 0.0, 0.0, 0.0, 0.0, 0.0, 0.0, 0.0)",-0.01144,-0.003298,-0.220813,"(0.0, 0.0, 0.0, 0.0, 0.0, 0.0, 0.0, 0.0, 0.0)",0.38,-0.145,-9.771,"(0.0, 0.0, 0.0, 0.0, 0.0, 0.0, 0.0, 0.0, 0.0)",0,0,0,imu1_frame,2.8389999999999998e-05,3.6400000000000003e-06,1.143e-05,"(0.0, 0.0, 0.0, 0.0, 0.0, 0.0, 0.0, 0.0, 0.0)","b'$VNYMR,-156.929,-001.075,-000.791,+00.2839,+00.0364,+00.1143,+00.380,-00.145,-09.771,-00.011440,-00.003298,-00.220813*6D\r\n'"
1711483463.3531682,75,1711483463,352637767,imu1_frame,0,0,0,imu1_frame,-0.010628475025036199,0.004955111153716489,-0.9802873778492155,0.197228647061237,"(0.0, 0.0, 0.0, 0.0, 0.0, 0.0, 0.0, 0.0, 0.0)",-0.007821,-0.002767,-0.222141,"(0.0, 0.0, 0.0, 0.0, 0.0, 0.0, 0.0, 0.0, 0.0)",0.423,-0.259,-9.702,"(0.0, 0.0, 0.0, 0.0, 0.0, 0.0, 0.0, 0.0, 0.0)",0,0,0,imu1_frame,2.8389999999999998e-05,2.68e-06,1.158e-05,"(0.0, 0.0, 0.0, 0.0, 0.0, 0.0, 0.0, 0.0, 0.0)","b'$VNYMR,-157.241,-001.082,-000.797,+00.2839,+00.0268,+00.1158,+00.423,-00.259,-09.702,-00.007821,-00.002767,-00.222141*60\r\n'"
1711483463.3792756,76,1711483463,378570079,imu1_frame,0,0,0,imu1_frame,-0.010678139548202412,0.005033845293364591,-0.9808217175435954,0.194549212622882,"(0.0, 0.0, 0.0, 0.0, 0.0, 0.0, 0.0, 0.0, 0.0)",-0.009228,-0.001305,-0.220529,"(0.0, 0.0, 0.0, 0.0, 0.0, 0.0, 0.0, 0.0, 0.0)",0.432,-0.252,-9.76,"(0.0, 0.0, 0.0, 0.0, 0.0, 0.0, 0.0, 0.0, 0.0)",0,0,0,imu1_frame,2.862e-05,3.27e-06,1.263e-05,"(0.0, 0.0, 0.0, 0.0, 0.0, 0.0, 0.0, 0.0, 0.0)","b'$VNYMR,-157.554,-001.088,-000.804,+00.2862,+00.0327,+00.1263,+00.432,-00.252,-09.760,-00.009228,-00.001305,-00.220529*6A\r\n'"
1711483463.4037125,77,1711483463,403351783,imu1_frame,0,0,0,imu1_frame,-0.010691568254351356,0.005110932165077636,-0.9813473776553165,0.19187728659145595,"(0.0, 0.0, 0.0, 0.0, 0.0, 0.0, 0.0, 0.0, 0.0)",-0.010684,0.000195,-0.21937,"(0.0, 0.0, 0.0, 0.0, 0.0, 0.0, 0.0, 0.0, 0.0)",0.359,-0.249,-9.633,"(0.0, 0.0, 0.0, 0.0, 0.0, 0.0, 0.0, 0.0, 0.0)",0,0,0,imu1_frame,2.9089999999999998e-05,3.13e-06,1.3180000000000001e-05,"(0.0, 0.0, 0.0, 0.0, 0.0, 0.0, 0.0, 0.0, 0.0)","b'$VNYMR,-157.866,-001.090,-000.810,+00.2909,+00.0313,+00.1318,+00.359,-00.249,-09.633,-00.010684,+00.000195,-00.219370*6D\r\n'"
1711483463.433741,78,1711483463,432679891,imu1_frame,0,0,0,imu1_frame,-0.010703095381441348,0.005179373893322917,-0.9818624992121776,0.18922116815025022,"(0.0, 0.0, 0.0, 0.0, 0.0, 0.0, 0.0, 0.0, 0.0)",-0.00947,0.00099,-0.219669,"(0.0, 0.0, 0.0, 0.0, 0.0, 0.0, 0.0, 0.0, 0.0)",0.411,-0.218,-9.635,"(0.0, 0.0, 0.0, 0.0, 0.0, 0.0, 0.0, 0.0, 0.0)",0,0,0,imu1_frame,2.8849999999999997e-05,3.0200000000000003e-06,1.2640000000000001e-05,"(0.0, 0.0, 0.0, 0.0, 0.0, 0.0, 0.0, 0.0, 0.0)","b'$VNYMR,-158.176,-001.092,-000.815,+00.2885,+00.0302,+00.1264,+00.411,-00.218,-09.635,-00.009470,+00.000990,-00.219669*6A\r\n'"
1711483463.4582872,79,1711483463,457030296,imu1_frame,0,0,0,imu1_frame,-0.010727925039289824,0.005271723372939506,-0.9823653373764639,0.18658902561044935,"(0.0, 0.0, 0.0, 0.0, 0.0, 0.0, 0.0, 0.0, 0.0)",-0.012216,-0.001805,-0.215809,"(0.0, 0.0, 0.0, 0.0, 0.0, 0.0, 0.0, 0.0, 0.0)",0.473,-0.204,-9.6,"(0.0, 0.0, 0.0, 0.0, 0.0, 0.0, 0.0, 0.0, 0.0)",0,0,0,imu1_frame,2.9199999999999998e-05,3.13e-06,1.305e-05,"(0.0, 0.0, 0.0, 0.0, 0.0, 0.0, 0.0, 0.0, 0.0)","b'$VNYMR,-158.483,-001.095,-000.823,+00.2920,+00.0313,+00.1305,+00.473,-00.204,-09.600,-00.012216,-00.001805,-00.215809*62\r\n'"
1711483463.516657,80,1711483463,507393836,imu1_frame,0,0,0,imu1_frame,-0.010815270863417829,0.00541417113609239,-0.9828523336386947,0.18399730141508067,"(0.0, 0.0, 0.0, 0.0, 0.0, 0.0, 0.0, 0.0, 0.0)",-0.018731,-0.006443,-0.211633,"(0.0, 0.0, 0.0, 0.0, 0.0, 0.0, 0.0, 0.0, 0.0)",0.432,-0.211,-9.546,"(0.0, 0.0, 0.0, 0.0, 0.0, 0.0, 0.0, 0.0, 0.0)",0,0,0,imu1_frame,2.9089999999999998e-05,2.89e-06,1.3180000000000001e-05,"(0.0, 0.0, 0.0, 0.0, 0.0, 0.0, 0.0, 0.0, 0.0)","b'$VNYMR,-158.785,-001.104,-000.838,+00.2909,+00.0289,+00.1318,+00.432,-00.211,-09.546,-00.018731,-00.006443,-00.211633*61\r\n'"
1711483463.5481806,81,1711483463,542066335,imu1_frame,0,0,0,imu1_frame,-0.010954537815988475,0.005600298111678626,-0.983325489727335,0.18143763670968413,"(0.0, 0.0, 0.0, 0.0, 0.0, 0.0, 0.0, 0.0, 0.0)",-0.018473,-0.008269,-0.208647,"(0.0, 0.0, 0.0, 0.0, 0.0, 0.0, 0.0, 0.0, 0.0)",0.395,-0.157,-9.526,"(0.0, 0.0, 0.0, 0.0, 0.0, 0.0, 0.0, 0.0, 0.0)",0,0,0,imu1_frame,2.9199999999999998e-05,2.89e-06,1.239e-05,"(0.0, 0.0, 0.0, 0.0, 0.0, 0.0, 0.0, 0.0, 0.0)","b'$VNYMR,-159.083,-001.118,-000.859,+00.2920,+00.0289,+00.1239,+00.395,-00.157,-09.526,-00.018473,-00.008269,-00.208647*61\r\n'"
1711483463.570711,82,1711483463,563473939,imu1_frame,0,0,0,imu1_frame,-0.011093788091905601,0.0057425023863276305,-0.9837889964630112,0.17889427595766283,"(0.0, 0.0, 0.0, 0.0, 0.0, 0.0, 0.0, 0.0, 0.0)",-0.01303,-0.009269,-0.209786,"(0.0, 0.0, 0.0, 0.0, 0.0, 0.0, 0.0, 0.0, 0.0)",0.384,-0.198,-9.576,"(0.0, 0.0, 0.0, 0.0, 0.0, 0.0, 0.0, 0.0, 0.0)",0,0,0,imu1_frame,2.98e-05,4.44e-06,1.267e-05,"(0.0, 0.0, 0.0, 0.0, 0.0, 0.0, 0.0, 0.0, 0.0)","b'$VNYMR,-159.379,-001.133,-000.875,+00.2980,+00.0444,+00.1267,+00.384,-00.198,-09.576,-00.013030,-00.009269,-00.209786*64\r\n'"
1711483463.5747354,83,1711483463,574237585,imu1_frame,0,0,0,imu1_frame,-0.011234808194757811,0.0058495651966580416,-0.9842460259294115,0.17634999890557718,"(0.0, 0.0, 0.0, 0.0, 0.0, 0.0, 0.0, 0.0, 0.0)",-0.010687,-0.007866,-0.20992,"(0.0, 0.0, 0.0, 0.0, 0.0, 0.0, 0.0, 0.0, 0.0)",0.382,-0.082,-9.716,"(0.0, 0.0, 0.0, 0.0, 0.0, 0.0, 0.0, 0.0, 0.0)",0,0,0,imu1_frame,2.9909999999999997e-05,3.71e-06,1.333e-05,"(0.0, 0.0, 0.0, 0.0, 0.0, 0.0, 0.0, 0.0, 0.0)","b'$VNYMR,-159.675,-001.149,-000.887,+00.2991,+00.0371,+00.1333,+00.382,-00.082,-09.716,-00.010687,-00.007866,-00.209920*64\r\n'"
1711483463.5816185,84,1711483463,581224441,imu1_frame,0,0,0,imu1_frame,-0.011349164565834588,0.005908673425662723,-0.9846938783868907,0.1738224666416559,"(0.0, 0.0, 0.0, 0.0, 0.0, 0.0, 0.0, 0.0, 0.0)",-0.007587,-0.006054,-0.208865,"(0.0, 0.0, 0.0, 0.0, 0.0, 0.0, 0.0, 0.0, 0.0)",0.323,-0.079,-9.647,"(0.0, 0.0, 0.0, 0.0, 0.0, 0.0, 0.0, 0.0, 0.0)",0,0,0,imu1_frame,2.979e-05,3.11e-06,1.32e-05,"(0.0, 0.0, 0.0, 0.0, 0.0, 0.0, 0.0, 0.0, 0.0)","b'$VNYMR,-159.969,-001.163,-000.893,+00.2979,+00.0311,+00.1320,+00.323,-00.079,-09.647,-00.007587,-00.006054,-00.208865*6F\r\n'"
1711483463.6062467,85,1711483463,605177879,imu1_frame,0,0,0,imu1_frame,-0.01144609704448162,0.0059713989472803715,-0.9851353779749509,0.17129394711784587,"(0.0, 0.0, 0.0, 0.0, 0.0, 0.0, 0.0, 0.0, 0.0)",-0.010453,-0.005416,-0.208346,"(0.0, 0.0, 0.0, 0.0, 0.0, 0.0, 0.0, 0.0, 0.0)",0.315,-0.134,-9.722,"(0.0, 0.0, 0.0, 0.0, 0.0, 0.0, 0.0, 0.0, 0.0)",0,0,0,imu1_frame,3.002e-05,3.71e-06,1.334e-05,"(0.0, 0.0, 0.0, 0.0, 0.0, 0.0, 0.0, 0.0, 0.0)","b'$VNYMR,-160.263,-001.175,-000.899,+00.3002,+00.0371,+00.1334,+00.315,-00.134,-09.722,-00.010453,-00.005416,-00.208346*64\r\n'"
1711483463.6625378,86,1711483463,659988880,imu1_frame,0,0,0,imu1_frame,-0.011531577360226721,0.006071810289551919,-0.9855673709086933,0.1687812585671736,"(0.0, 0.0, 0.0, 0.0, 0.0, 0.0, 0.0, 0.0, 0.0)",-0.009759,-0.006206,-0.205968,"(0.0, 0.0, 0.0, 0.0, 0.0, 0.0, 0.0, 0.0, 0.0)",0.408,-0.144,-9.683,"(0.0, 0.0, 0.0, 0.0, 0.0, 0.0, 0.0, 0.0, 0.0)",0,0,0,imu1_frame,2.979e-05,3.1199999999999998e-06,1.307e-05,"(0.0, 0.0, 0.0, 0.0, 0.0, 0.0, 0.0, 0.0, 0.0)","b'$VNYMR,-160.555,-001.185,-000.909,+00.2979,+00.0312,+00.1307,+00.408,-00.144,-09.683,-00.009759,-00.006206,-00.205968*68\r\n'"
1711483463.6770704,87,1711483463,675945997,imu1_frame,0,0,0,imu1_frame,-0.011629581986355672,0.0061437743520466465,-0.9859900453059505,0.1662848081368335,"(0.0, 0.0, 0.0, 0.0, 0.0, 0.0, 0.0, 0.0, 0.0)",-0.009079,-0.006343,-0.203874,"(0.0, 0.0, 0.0, 0.0, 0.0, 0.0, 0.0, 0.0, 0.0)",0.383,-0.283,-9.659,"(0.0, 0.0, 0.0, 0.0, 0.0, 0.0, 0.0, 0.0, 0.0)",0,0,0,imu1_frame,3.025e-05,3.22e-06,1.3350000000000001e-05,"(0.0, 0.0, 0.0, 0.0, 0.0, 0.0, 0.0, 0.0, 0.0)","b'$VNYMR,-160.845,-001.197,-000.916,+00.3025,+00.0322,+00.1335,+00.383,-00.283,-09.659,-00.009079,-00.006343,-00.203874*6E\r\n'"
1711483463.6874144,88,1711483463,686431407,imu1_frame,0,0,0,imu1_frame,-0.011740384802286199,0.006187279895777149,-0.9864020990876278,0.16381324686272206,"(0.0, 0.0, 0.0, 0.0, 0.0, 0.0, 0.0, 0.0, 0.0)",-0.006273,-0.009302,-0.203803,"(0.0, 0.0, 0.0, 0.0, 0.0, 0.0, 0.0, 0.0, 0.0)",0.396,-0.277,-9.437,"(0.0, 0.0, 0.0, 0.0, 0.0, 0.0, 0.0, 0.0, 0.0)",0,0,0,imu1_frame,2.9909999999999997e-05,4.07e-06,1.267e-05,"(0.0, 0.0, 0.0, 0.0, 0.0, 0.0, 0.0, 0.0, 0.0)","b'$VNYMR,-161.132,-001.211,-000.920,+00.2991,+00.0407,+00.1267,+00.396,-00.277,-09.437,-00.006273,-00.009302,-00.203803*67\r\n'"
1711483463.703812,89,1711483463,703425884,imu1_frame,0,0,0,imu1_frame,-0.011882834272953058,0.006155439309550104,-0.98680797061421,0.16134106095105616,"(0.0, 0.0, 0.0, 0.0, 0.0, 0.0, 0.0, 0.0, 0.0)",-0.000782,-0.011741,-0.202573,"(0.0, 0.0, 0.0, 0.0, 0.0, 0.0, 0.0, 0.0, 0.0)",0.379,-0.144,-9.59,"(0.0, 0.0, 0.0, 0.0, 0.0, 0.0, 0.0, 0.0, 0.0)",0,0,0,imu1_frame,3.0259999999999998e-05,3.58e-06,1.269e-05,"(0.0, 0.0, 0.0, 0.0, 0.0, 0.0, 0.0, 0.0, 0.0)","b'$VNYMR,-161.419,-001.230,-000.916,+00.3026,+00.0358,+00.1269,+00.379,-00.144,-09.590,-00.000782,-00.011741,-00.202573*68\r\n'"
1711483463.729704,90,1711483463,729166030,imu1_frame,0,0,0,imu1_frame,-0.011999967788360643,0.006075437060289049,-0.9872081010594648,0.15886867230568227,"(0.0, 0.0, 0.0, 0.0, 0.0, 0.0, 0.0, 0.0, 0.0)",0.003823,-0.008193,-0.203707,"(0.0, 0.0, 0.0, 0.0, 0.0, 0.0, 0.0, 0.0, 0.0)",0.243,-0.165,-9.739,"(0.0, 0.0, 0.0, 0.0, 0.0, 0.0, 0.0, 0.0, 0.0)",0,0,0,imu1_frame,3.06e-05,3.57e-06,1.31e-05,"(0.0, 0.0, 0.0, 0.0, 0.0, 0.0, 0.0, 0.0, 0.0)","b'$VNYMR,-161.706,-001.247,-000.906,+00.3060,+00.0357,+00.1310,+00.243,-00.165,-09.739,+00.003823,-00.008193,-00.203707*6C\r\n'"
1711483463.758163,91,1711483463,757789134,imu1_frame,0,0,0,imu1_frame,-0.012050424023446912,0.005962532652421136,-0.9876028537841808,0.1563964151845115,"(0.0, 0.0, 0.0, 0.0, 0.0, 0.0, 0.0, 0.0, 0.0)",0.006036,-0.002692,-0.201021,"(0.0, 0.0, 0.0, 0.0, 0.0, 0.0, 0.0, 0.0, 0.0)",0.331,-0.124,-9.805,"(0.0, 0.0, 0.0, 0.0, 0.0, 0.0, 0.0, 0.0, 0.0)",0,0,0,imu1_frame,3.061e-05,3.9300000000000005e-06,1.2970000000000001e-05,"(0.0, 0.0, 0.0, 0.0, 0.0, 0.0, 0.0, 0.0, 0.0)","b'$VNYMR,-161.993,-001.257,-000.891,+00.3061,+00.0393,+00.1297,+00.331,-00.124,-09.805,+00.006036,-00.002692,-00.201021*62\r\n'"
1711483463.7885704,92,1711483463,788096427,imu1_frame,0,0,0,imu1_frame,-0.012019947135870521,0.005836051792567153,-0.9879909596100918,0.15393285906217452,"(0.0, 0.0, 0.0, 0.0, 0.0, 0.0, 0.0, 0.0, 0.0)",0.008498,0.003622,-0.204775,"(0.0, 0.0, 0.0, 0.0, 0.0, 0.0, 0.0, 0.0, 0.0)",0.331,-0.1,-9.852,"(0.0, 0.0, 0.0, 0.0, 0.0, 0.0, 0.0, 0.0, 0.0)",0,0,0,imu1_frame,3.085e-05,4.65e-06,1.31e-05,"(0.0, 0.0, 0.0, 0.0, 0.0, 0.0, 0.0, 0.0, 0.0)","b'$VNYMR,-162.279,-001.258,-000.873,+00.3085,+00.0465,+00.1310,+00.331,-00.100,-09.852,+00.008498,+00.003622,-00.204775*62\r\n'"
1711483463.8089375,93,1711483463,808386087,imu1_frame,0,0,0,imu1_frame,-0.011954255214517906,0.005706333154850991,-0.9883759275731976,0.1514515082064665,"(0.0, 0.0, 0.0, 0.0, 0.0, 0.0, 0.0, 0.0, 0.0)",0.009677,0.004305,-0.204807,"(0.0, 0.0, 0.0, 0.0, 0.0, 0.0, 0.0, 0.0, 0.0)",0.213,-0.198,-9.783,"(0.0, 0.0, 0.0, 0.0, 0.0, 0.0, 0.0, 0.0, 0.0)",0,0,0,imu1_frame,3.072e-05,3.4500000000000004e-06,1.311e-05,"(0.0, 0.0, 0.0, 0.0, 0.0, 0.0, 0.0, 0.0, 0.0)","b'$VNYMR,-162.567,-001.255,-000.854,+00.3072,+00.0345,+00.1311,+00.213,-00.198,-09.783,+00.009677,+00.004305,-00.204807*62\r\n'"
1711483463.8284628,94,1711483463,827925443,imu1_frame,0,0,0,imu1_frame,-0.01189921946608414,0.005583649077103241,-0.9887545035100495,0.1489690008950771,"(0.0, 0.0, 0.0, 0.0, 0.0, 0.0, 0.0, 0.0, 0.0)",0.006032,0.003949,-0.203765,"(0.0, 0.0, 0.0, 0.0, 0.0, 0.0, 0.0, 0.0, 0.0)",0.269,-0.367,-9.669,"(0.0, 0.0, 0.0, 0.0, 0.0, 0.0, 0.0, 0.0, 0.0)",0,0,0,imu1_frame,3.119e-05,3.56e-06,1.2859999999999999e-05,"(0.0, 0.0, 0.0, 0.0, 0.0, 0.0, 0.0, 0.0, 0.0)","b'$VNYMR,-162.855,-001.253,-000.836,+00.3119,+00.0356,+00.1286,+00.269,-00.367,-09.669,+00.006032,+00.003949,-00.203765*66\r\n'"
1711483463.8609009,95,1711483463,860410213,imu1_frame,0,0,0,imu1_frame,-0.011867348095962429,0.005492485735172123,-0.9891239019408117,0.1465022363617762,"(0.0, 0.0, 0.0, 0.0, 0.0, 0.0, 0.0, 0.0, 0.0)",0.002146,0.001679,-0.201799,"(0.0, 0.0, 0.0, 0.0, 0.0, 0.0, 0.0, 0.0, 0.0)",0.36,-0.483,-9.646,"(0.0, 0.0, 0.0, 0.0, 0.0, 0.0, 0.0, 0.0, 0.0)",0,0,0,imu1_frame,3.107e-05,3.92e-06,1.233e-05,"(0.0, 0.0, 0.0, 0.0, 0.0, 0.0, 0.0, 0.0, 0.0)","b'$VNYMR,-163.141,-001.253,-000.822,+00.3107,+00.0392,+00.1233,+00.360,-00.483,-09.646,+00.002146,+00.001679,-00.201799*66\r\n'"
1711483463.8806257,96,1711483463,878645420,imu1_frame,0,0,0,imu1_frame,-0.011863330724468766,0.005467761421557022,-0.989486580907347,0.1440335765488275,"(0.0, 0.0, 0.0, 0.0, 0.0, 0.0, 0.0, 0.0, 0.0)",-0.00264,6e-05,-0.200697,"(0.0, 0.0, 0.0, 0.0, 0.0, 0.0, 0.0, 0.0, 0.0)",0.289,-0.501,-9.651,"(0.0, 0.0, 0.0, 0.0, 0.0, 0.0, 0.0, 0.0, 0.0)",0,0,0,imu1_frame,3.107e-05,4.0399999999999994e-06,1.299e-05,"(0.0, 0.0, 0.0, 0.0, 0.0, 0.0, 0.0, 0.0, 0.0)","b'$VNYMR,-163.427,-001.255,-000.816,+00.3107,+00.0404,+00.1299,+00.289,-00.501,-09.651,-00.002640,+00.000060,-00.200697*67\r\n'"
1711483463.9046438,97,1711483463,904159069,imu1_frame,0,0,0,imu1_frame,-0.011917609993155942,0.005478613312024653,-0.9898398688356119,0.14158032854788483,"(0.0, 0.0, 0.0, 0.0, 0.0, 0.0, 0.0, 0.0, 0.0)",-0.006675,-0.003608,-0.199386,"(0.0, 0.0, 0.0, 0.0, 0.0, 0.0, 0.0, 0.0, 0.0)",0.285,-0.478,-9.672,"(0.0, 0.0, 0.0, 0.0, 0.0, 0.0, 0.0, 0.0, 0.0)",0,0,0,imu1_frame,3.107e-05,3.2e-06,1.129e-05,"(0.0, 0.0, 0.0, 0.0, 0.0, 0.0, 0.0, 0.0, 0.0)","b'$VNYMR,-163.711,-001.263,-000.815,+00.3107,+00.0320,+00.1129,+00.285,-00.478,-09.672,-00.006675,-00.003608,-00.199386*65\r\n'"
1711483463.9297922,98,1711483463,929361343,imu1_frame,0,0,0,imu1_frame,-0.011984191004895424,0.005514475499002141,-0.9901868380517066,0.13912582605358542,"(0.0, 0.0, 0.0, 0.0, 0.0, 0.0, 0.0, 0.0, 0.0)",-0.007208,-0.004675,-0.201387,"(0.0, 0.0, 0.0, 0.0, 0.0, 0.0, 0.0, 0.0, 0.0)",0.234,-0.431,-9.69,"(0.0, 0.0, 0.0, 0.0, 0.0, 0.0, 0.0, 0.0, 0.0)",0,0,0,imu1_frame,3.13e-05,3.44e-06,1.2080000000000001e-05,"(0.0, 0.0, 0.0, 0.0, 0.0, 0.0, 0.0, 0.0, 0.0)","b'$VNYMR,-163.995,-001.272,-000.817,+00.3130,+00.0344,+00.1208,+00.234,-00.431,-09.690,-00.007208,-00.004675,-00.201387*69\r\n'"
1711483463.9533792,99,1711483463,952927350,imu1_frame,0,0,0,imu1_frame,-0.012060454828494148,0.0055582564342217654,-0.9905287708544449,0.1366616454032506,"(0.0, 0.0, 0.0, 0.0, 0.0, 0.0, 0.0, 0.0, 0.0)",-0.007178,-0.00382,-0.199237,"(0.0, 0.0, 0.0, 0.0, 0.0, 0.0, 0.0, 0.0, 0.0)",0.103,-0.288,-9.724,"(0.0, 0.0, 0.0, 0.0, 0.0, 0.0, 0.0, 0.0, 0.0)",0,0,0,imu1_frame,3.1650000000000004e-05,3.6700000000000004e-06,1.183e-05,"(0.0, 0.0, 0.0, 0.0, 0.0, 0.0, 0.0, 0.0, 0.0)","b'$VNYMR,-164.280,-001.282,-000.820,+00.3165,+00.0367,+00.1183,+00.103,-00.288,-09.724,-00.007178,-00.003820,-00.199237*63\r\n'"
1711483463.9810932,100,1711483463,980720996,imu1_frame,0,0,0,imu1_frame,-0.012097205740241547,0.005572764018043587,-0.9908674565720889,0.1341800485200289,"(0.0, 0.0, 0.0, 0.0, 0.0, 0.0, 0.0, 0.0, 0.0)",-0.002855,-0.000667,-0.20353,"(0.0, 0.0, 0.0, 0.0, 0.0, 0.0, 0.0, 0.0, 0.0)",0.17,-0.274,-9.639,"(0.0, 0.0, 0.0, 0.0, 0.0, 0.0, 0.0, 0.0, 0.0)",0,0,0,imu1_frame,3.142e-05,3.910000000000001e-06,1.182e-05,"(0.0, 0.0, 0.0, 0.0, 0.0, 0.0, 0.0, 0.0, 0.0)","b'$VNYMR,-164.567,-001.288,-000.819,+00.3142,+00.0391,+00.1182,+00.170,-00.274,-09.639,-00.002855,-00.000667,-00.203530*67\r\n'"
1711483464.014868,101,1711483464,14467954,imu1_frame,0,0,0,imu1_frame,-0.012083718526628425,0.005541555771857232,-0.9912029585174926,0.1316813196029205,"(0.0, 0.0, 0.0, 0.0, 0.0, 0.0, 0.0, 0.0, 0.0)",0.001983,0.003276,-0.206726,"(0.0, 0.0, 0.0, 0.0, 0.0, 0.0, 0.0, 0.0, 0.0)",0.258,-0.283,-9.495,"(0.0, 0.0, 0.0, 0.0, 0.0, 0.0, 0.0, 0.0, 0.0)",0,0,0,imu1_frame,3.1769999999999996e-05,3.6700000000000004e-06,1.131e-05,"(0.0, 0.0, 0.0, 0.0, 0.0, 0.0, 0.0, 0.0, 0.0)","b'$VNYMR,-164.856,-001.289,-000.812,+00.3177,+00.0367,+00.1131,+00.258,-00.283,-09.495,+00.001983,+00.003276,-00.206726*6E\r\n'"
1711483464.029736,102,1711483464,29253005,imu1_frame,0,0,0,imu1_frame,-0.012038680310621221,0.005470857861941196,-0.9915371718367031,0.129147887155405,"(0.0, 0.0, 0.0, 0.0, 0.0, 0.0, 0.0, 0.0, 0.0)",0.004923,0.0036,-0.206862,"(0.0, 0.0, 0.0, 0.0, 0.0, 0.0, 0.0, 0.0, 0.0)",0.293,-0.275,-9.381,"(0.0, 0.0, 0.0, 0.0, 0.0, 0.0, 0.0, 0.0, 0.0)",0,0,0,imu1_frame,3.2e-05,3.7800000000000002e-06,1.172e-05,"(0.0, 0.0, 0.0, 0.0, 0.0, 0.0, 0.0, 0.0, 0.0)","b'$VNYMR,-165.149,-001.287,-000.800,+00.3200,+00.0378,+00.1172,+00.293,-00.275,-09.381,+00.004923,+00.003600,-00.206862*66\r\n'"
1711483464.05609,103,1711483464,54530143,imu1_frame,0,0,0,imu1_frame,-0.012003659233303429,0.005337164356308807,-0.9918650480069183,0.126614191084088,"(0.0, 0.0, 0.0, 0.0, 0.0, 0.0, 0.0, 0.0, 0.0)",0.008734,-0.000192,-0.207446,"(0.0, 0.0, 0.0, 0.0, 0.0, 0.0, 0.0, 0.0, 0.0)",0.233,-0.089,-9.394,"(0.0, 0.0, 0.0, 0.0, 0.0, 0.0, 0.0, 0.0, 0.0)",0,0,0,imu1_frame,3.189e-05,4.5e-06,1.144e-05,"(0.0, 0.0, 0.0, 0.0, 0.0, 0.0, 0.0, 0.0, 0.0)","b'$VNYMR,-165.442,-001.287,-000.781,+00.3189,+00.0450,+00.1144,+00.233,-00.089,-09.394,+00.008734,-00.000192,-00.207446*6D\r\n'"
1711483464.0933127,104,1711483464,91559648,imu1_frame,0,0,0,imu1_frame,-0.012003942796532113,0.005199201589734363,-0.9921882271647168,0.12406206324216607,"(0.0, 0.0, 0.0, 0.0, 0.0, 0.0, 0.0, 0.0, 0.0)",0.009112,-0.002257,-0.208383,"(0.0, 0.0, 0.0, 0.0, 0.0, 0.0, 0.0, 0.0, 0.0)",0.198,-0.181,-9.559,"(0.0, 0.0, 0.0, 0.0, 0.0, 0.0, 0.0, 0.0, 0.0)",0,0,0,imu1_frame,3.224e-05,3.7800000000000002e-06,1.041e-05,"(0.0, 0.0, 0.0, 0.0, 0.0, 0.0, 0.0, 0.0, 0.0)","b'$VNYMR,-165.737,-001.291,-000.762,+00.3224,+00.0378,+00.1041,+00.198,-00.181,-09.559,+00.009112,-00.002257,-00.208383*6D\r\n'"
1711483464.119862,105,1711483464,119110107,imu1_frame,0,0,0,imu1_frame,-0.012064583092198449,0.00504518404560738,-0.992504214833685,0.12150874655813076,"(0.0, 0.0, 0.0, 0.0, 0.0, 0.0, 0.0, 0.0, 0.0)",0.007716,-0.007786,-0.20751,"(0.0, 0.0, 0.0, 0.0, 0.0, 0.0, 0.0, 0.0, 0.0)",0.095,-0.229,-9.8,"(0.0, 0.0, 0.0, 0.0, 0.0, 0.0, 0.0, 0.0, 0.0)",0,0,0,imu1_frame,3.224e-05,3.89e-06,1.08e-05,"(0.0, 0.0, 0.0, 0.0, 0.0, 0.0, 0.0, 0.0, 0.0)","b'$VNYMR,-166.032,-001.302,-000.742,+00.3224,+00.0389,+00.1080,+00.095,-00.229,-09.800,+00.007716,-00.007786,-00.207510*69\r\n'"
1711483464.1318927,106,1711483464,131113529,imu1_frame,0,0,0,imu1_frame,-0.01219206102757443,0.004927239707745916,-0.9928096088083379,0.11897964790079656,"(0.0, 0.0, 0.0, 0.0, 0.0, 0.0, 0.0, 0.0, 0.0)",0.004973,-0.011697,-0.207645,"(0.0, 0.0, 0.0, 0.0, 0.0, 0.0, 0.0, 0.0, 0.0)",0.178,-0.364,-9.74,"(0.0, 0.0, 0.0, 0.0, 0.0, 0.0, 0.0, 0.0, 0.0)",0,0,0,imu1_frame,3.247e-05,4.13e-06,1.029e-05,"(0.0, 0.0, 0.0, 0.0, 0.0, 0.0, 0.0, 0.0, 0.0)","b'$VNYMR,-166.324,-001.320,-000.727,+00.3247,+00.0413,+00.1029,+00.178,-00.364,-09.740,+00.004973,-00.011697,-00.207645*66\r\n'"
1711483464.1541815,107,1711483464,153423786,imu1_frame,0,0,0,imu1_frame,-0.012373231631221848,0.0048125406518232825,-0.993107899248374,0.1164493153348539,"(0.0, 0.0, 0.0, 0.0, 0.0, 0.0, 0.0, 0.0, 0.0)",0.00497,-0.015081,-0.207165,"(0.0, 0.0, 0.0, 0.0, 0.0, 0.0, 0.0, 0.0, 0.0)",0.094,-0.465,-9.693,"(0.0, 0.0, 0.0, 0.0, 0.0, 0.0, 0.0, 0.0, 0.0)",0,0,0,imu1_frame,3.271e-05,4.36e-06,1.134e-05,"(0.0, 0.0, 0.0, 0.0, 0.0, 0.0, 0.0, 0.0, 0.0)","b'$VNYMR,-166.616,-001.344,-000.713,+00.3271,+00.0436,+00.1134,+00.094,-00.465,-09.693,+00.004970,-00.015081,-00.207165*61\r\n'"
1711483464.1978507,108,1711483464,190078735,imu1_frame,0,0,0,imu1_frame,-0.012564686301193732,0.004706581427964666,-0.9934005321019268,0.11390943582084617,"(0.0, 0.0, 0.0, 0.0, 0.0, 0.0, 0.0, 0.0, 0.0)",0.002287,-0.014765,-0.207104,"(0.0, 0.0, 0.0, 0.0, 0.0, 0.0, 0.0, 0.0, 0.0)",0.005,-0.475,-9.71,"(0.0, 0.0, 0.0, 0.0, 0.0, 0.0, 0.0, 0.0, 0.0)",0,0,0,imu1_frame,3.2590000000000005e-05,4e-06,1.147e-05,"(0.0, 0.0, 0.0, 0.0, 0.0, 0.0, 0.0, 0.0, 0.0)","b'$VNYMR,-166.909,-001.369,-000.700,+00.3259,+00.0400,+00.1147,+00.005,-00.475,-09.710,+00.002287,-00.014765,-00.207104*6B\r\n'"
1711483464.2135398,109,1711483464,213128089,imu1_frame,0,0,0,imu1_frame,-0.012733622982374638,0.004630679102848887,-0.9936877532145006,0.11136005014504458,"(0.0, 0.0, 0.0, 0.0, 0.0, 0.0, 0.0, 0.0, 0.0)",0.00057,-0.012224,-0.209204,"(0.0, 0.0, 0.0, 0.0, 0.0, 0.0, 0.0, 0.0, 0.0)",0.043,-0.45,-9.674,"(0.0, 0.0, 0.0, 0.0, 0.0, 0.0, 0.0, 0.0, 0.0)",0,0,0,imu1_frame,3.317e-05,3.63e-06,1.045e-05,"(0.0, 0.0, 0.0, 0.0, 0.0, 0.0, 0.0, 0.0, 0.0)","b'$VNYMR,-167.203,-001.391,-000.690,+00.3317,+00.0363,+00.1045,+00.043,-00.450,-09.674,+00.000570,-00.012224,-00.209204*6E\r\n'"
1711483464.248613,110,1711483464,247000694,imu1_frame,0,0,0,imu1_frame,-0.012865317986578728,0.0046125859316271485,-0.9939695989766903,0.10880093728569197,"(0.0, 0.0, 0.0, 0.0, 0.0, 0.0, 0.0, 0.0, 0.0)",-0.005234,-0.007708,-0.207101,"(0.0, 0.0, 0.0, 0.0, 0.0, 0.0, 0.0, 0.0, 0.0)",-0.026,-0.34,-9.648,"(0.0, 0.0, 0.0, 0.0, 0.0, 0.0, 0.0, 0.0, 0.0)",0,0,0,imu1_frame,3.306e-05,4.11e-06,1.123e-05,"(0.0, 0.0, 0.0, 0.0, 0.0, 0.0, 0.0, 0.0, 0.0)","b'$VNYMR,-167.498,-001.408,-000.686,+00.3306,+00.0411,+00.1123,-00.026,-00.340,-09.648,-00.005234,-00.007708,-00.207101*66\r\n'"
1711483464.2558446,111,1711483464,255084753,imu1_frame,0,0,0,imu1_frame,-0.012947953397970217,0.004626688621749959,-0.9942443948569172,0.10624983553306608,"(0.0, 0.0, 0.0, 0.0, 0.0, 0.0, 0.0, 0.0, 0.0)",-0.004848,-0.004121,-0.208392,"(0.0, 0.0, 0.0, 0.0, 0.0, 0.0, 0.0, 0.0, 0.0)",0.083,-0.241,-9.563,"(0.0, 0.0, 0.0, 0.0, 0.0, 0.0, 0.0, 0.0, 0.0)",0,0,0,imu1_frame,3.3289999999999995e-05,4.7e-06,1.2149999999999999e-05,"(0.0, 0.0, 0.0, 0.0, 0.0, 0.0, 0.0, 0.0, 0.0)","b'$VNYMR,-167.792,-001.419,-000.685,+00.3329,+00.0470,+00.1215,+00.083,-00.241,-09.563,-00.004848,-00.004121,-00.208392*6A\r\n'"
1711483464.2819457,112,1711483464,280943632,imu1_frame,0,0,0,imu1_frame,-0.013011433271708082,0.004625700732044143,-0.9945129202757557,0.10369839391977986,"(0.0, 0.0, 0.0, 0.0, 0.0, 0.0, 0.0, 0.0, 0.0)",-0.002176,-0.003604,-0.209035,"(0.0, 0.0, 0.0, 0.0, 0.0, 0.0, 0.0, 0.0, 0.0)",0.019,-0.247,-9.418,"(0.0, 0.0, 0.0, 0.0, 0.0, 0.0, 0.0, 0.0, 0.0)",0,0,0,imu1_frame,3.3639999999999996e-05,4.45e-06,1.138e-05,"(0.0, 0.0, 0.0, 0.0, 0.0, 0.0, 0.0, 0.0, 0.0)","b'$VNYMR,-168.086,-001.428,-000.682,+00.3364,+00.0445,+00.1138,+00.019,-00.247,-09.418,-00.002176,-00.003604,-00.209035*63\r\n'"
1711483464.3150177,113,1711483464,314610719,imu1_frame,0,0,0,imu1_frame,-0.013055033189617841,0.00460068010690018,-0.9947743361308342,0.10115542509638228,"(0.0, 0.0, 0.0, 0.0, 0.0, 0.0, 0.0, 0.0, 0.0)",-0.000329,-0.001703,-0.207707,"(0.0, 0.0, 0.0, 0.0, 0.0, 0.0, 0.0, 0.0, 0.0)",0.004,-0.252,-9.506,"(0.0, 0.0, 0.0, 0.0, 0.0, 0.0, 0.0, 0.0, 0.0)",0,0,0,imu1_frame,3.341e-05,5.06e-06,1.202e-05,"(0.0, 0.0, 0.0, 0.0, 0.0, 0.0, 0.0, 0.0, 0.0)","b'$VNYMR,-168.379,-001.435,-000.676,+00.3341,+00.0506,+00.1202,+00.004,-00.252,-09.506,-00.000329,-00.001703,-00.207707*6C\r\n'"
1711483464.3298635,114,1711483464,329181194,imu1_frame,0,0,0,imu1_frame,-0.013065093810673348,0.004587701651879381,-0.9950270369090892,0.09863798526526009,"(0.0, 0.0, 0.0, 0.0, 0.0, 0.0, 0.0, 0.0, 0.0)",-0.002273,-0.000386,-0.204632,"(0.0, 0.0, 0.0, 0.0, 0.0, 0.0, 0.0, 0.0, 0.0)",0.019,-0.343,-9.589,"(0.0, 0.0, 0.0, 0.0, 0.0, 0.0, 0.0, 0.0, 0.0)",0,0,0,imu1_frame,3.341e-05,4.82e-06,1.229e-05,"(0.0, 0.0, 0.0, 0.0, 0.0, 0.0, 0.0, 0.0, 0.0)","b'$VNYMR,-168.669,-001.438,-000.671,+00.3341,+00.0482,+00.1229,+00.019,-00.343,-09.589,-00.002273,-00.000386,-00.204632*6C\r\n'"
1711483464.3530507,115,1711483464,352578163,imu1_frame,0,0,0,imu1_frame,-0.013080457513526452,0.004626573834704391,-0.9952706064692343,0.09614528768562373,"(0.0, 0.0, 0.0, 0.0, 0.0, 0.0, 0.0, 0.0, 0.0)",-0.008061,0.000219,-0.202644,"(0.0, 0.0, 0.0, 0.0, 0.0, 0.0, 0.0, 0.0, 0.0)",0.02,-0.342,-9.633,"(0.0, 0.0, 0.0, 0.0, 0.0, 0.0, 0.0, 0.0, 0.0)",0,0,0,imu1_frame,3.353e-05,4.7e-06,1.2559999999999998e-05,"(0.0, 0.0, 0.0, 0.0, 0.0, 0.0, 0.0, 0.0, 0.0)","b'$VNYMR,-168.956,-001.441,-000.672,+00.3353,+00.0470,+00.1256,+00.020,-00.342,-09.633,-00.008061,+00.000219,-00.202644*60\r\n'"
1711483464.3794897,116,1711483464,378870487,imu1_frame,0,0,0,imu1_frame,-0.013072180025078916,0.004693841556530878,-0.9955064871790656,0.09366920489270152,"(0.0, 0.0, 0.0, 0.0, 0.0, 0.0, 0.0, 0.0, 0.0)",-0.008959,0.002168,-0.199534,"(0.0, 0.0, 0.0, 0.0, 0.0, 0.0, 0.0, 0.0, 0.0)",0.057,-0.275,-9.587,"(0.0, 0.0, 0.0, 0.0, 0.0, 0.0, 0.0, 0.0, 0.0)",0,0,0,imu1_frame,3.388e-05,5.29e-06,1.191e-05,"(0.0, 0.0, 0.0, 0.0, 0.0, 0.0, 0.0, 0.0, 0.0)","b'$VNYMR,-169.241,-001.441,-000.676,+00.3388,+00.0529,+00.1191,+00.057,-00.275,-09.587,-00.008959,+00.002168,-00.199534*62\r\n'"
1711483464.4146168,117,1711483464,413510084,imu1_frame,0,0,0,imu1_frame,-0.013081948074971716,0.004767849250161153,-0.995733567994345,0.09121837434060416,"(0.0, 0.0, 0.0, 0.0, 0.0, 0.0, 0.0, 0.0, 0.0)",-0.007964,-0.000753,-0.200608,"(0.0, 0.0, 0.0, 0.0, 0.0, 0.0, 0.0, 0.0, 0.0)",0.037,-0.36,-9.556,"(0.0, 0.0, 0.0, 0.0, 0.0, 0.0, 0.0, 0.0, 0.0)",0,0,0,imu1_frame,3.423e-05,5.16e-06,1.245e-05,"(0.0, 0.0, 0.0, 0.0, 0.0, 0.0, 0.0, 0.0, 0.0)","b'$VNYMR,-169.523,-001.443,-000.681,+00.3423,+00.0516,+00.1245,+00.037,-00.360,-09.556,-00.007964,-00.000753,-00.200608*60\r\n'"
1711483464.4316878,118,1711483464,430825948,imu1_frame,0,0,0,imu1_frame,-0.01311681422096354,0.004830685039580441,-0.9959527906180309,0.08878430338127245,"(0.0, 0.0, 0.0, 0.0, 0.0, 0.0, 0.0, 0.0, 0.0)",-0.00947,-0.003328,-0.196107,"(0.0, 0.0, 0.0, 0.0, 0.0, 0.0, 0.0, 0.0, 0.0)",-0.022,-0.325,-9.537,"(0.0, 0.0, 0.0, 0.0, 0.0, 0.0, 0.0, 0.0, 0.0)",0,0,0,imu1_frame,3.423e-05,5.4e-06,1.153e-05,"(0.0, 0.0, 0.0, 0.0, 0.0, 0.0, 0.0, 0.0, 0.0)","b'$VNYMR,-169.803,-001.448,-000.685,+00.3423,+00.0540,+00.1153,-00.022,-00.325,-09.537,-00.009470,-00.003328,-00.196107*6A\r\n'"
1711483464.4549165,119,1711483464,454250574,imu1_frame,0,0,0,imu1_frame,-0.013197305729629974,0.004915679145785519,-0.9961631415676678,0.08637512721871474,"(0.0, 0.0, 0.0, 0.0, 0.0, 0.0, 0.0, 0.0, 0.0)",-0.012133,-0.004749,-0.194263,"(0.0, 0.0, 0.0, 0.0, 0.0, 0.0, 0.0, 0.0, 0.0)",-0.01,-0.267,-9.575,"(0.0, 0.0, 0.0, 0.0, 0.0, 0.0, 0.0, 0.0, 0.0)",0,0,0,imu1_frame,3.423e-05,5.04e-06,1.206e-05,"(0.0, 0.0, 0.0, 0.0, 0.0, 0.0, 0.0, 0.0, 0.0)","b'$VNYMR,-170.080,-001.458,-000.692,+00.3423,+00.0504,+00.1206,-00.010,-00.267,-09.575,-00.012133,-00.004749,-00.194263*6A\r\n'"
1711483464.4816499,120,1711483464,481132030,imu1_frame,0,0,0,imu1_frame,-0.013280481039435006,0.005035638124182596,-0.9963660136167779,0.08398236768187807,"(0.0, 0.0, 0.0, 0.0, 0.0, 0.0, 0.0, 0.0, 0.0)",-0.015326,-0.003947,-0.195199,"(0.0, 0.0, 0.0, 0.0, 0.0, 0.0, 0.0, 0.0, 0.0)",0.039,-0.159,-9.433,"(0.0, 0.0, 0.0, 0.0, 0.0, 0.0, 0.0, 0.0, 0.0)",0,0,0,imu1_frame,3.423e-05,5.28e-06,1.192e-05,"(0.0, 0.0, 0.0, 0.0, 0.0, 0.0, 0.0, 0.0, 0.0)","b'$VNYMR,-170.355,-001.468,-000.703,+00.3423,+00.0528,+00.1192,+00.039,-00.159,-09.433,-00.015326,-00.003947,-00.195199*6A\r\n'"
1711483464.5085297,121,1711483464,507446765,imu1_frame,0,0,0,imu1_frame,-0.01335154982024368,0.005226790825099021,-0.9965615516282937,0.08160570195320672,"(0.0, 0.0, 0.0, 0.0, 0.0, 0.0, 0.0, 0.0, 0.0)",-0.01873,-0.001117,-0.19226,"(0.0, 0.0, 0.0, 0.0, 0.0, 0.0, 0.0, 0.0, 0.0)",-0.016,-0.222,-9.49,"(0.0, 0.0, 0.0, 0.0, 0.0, 0.0, 0.0, 0.0, 0.0)",0,0,0,imu1_frame,3.435e-05,5.52e-06,1.166e-05,"(0.0, 0.0, 0.0, 0.0, 0.0, 0.0, 0.0, 0.0, 0.0)","b'$VNYMR,-170.628,-001.476,-000.722,+00.3435,+00.0552,+00.1166,-00.016,-00.222,-09.490,-00.018730,-00.001117,-00.192260*66\r\n'"
1711483464.533854,122,1711483464,533289194,imu1_frame,0,0,0,imu1_frame,-0.013371023282612788,0.005439746421772367,-0.9967512515601126,0.07923741167271811,"(0.0, 0.0, 0.0, 0.0, 0.0, 0.0, 0.0, 0.0, 0.0)",-0.019405,0.001408,-0.194356,"(0.0, 0.0, 0.0, 0.0, 0.0, 0.0, 0.0, 0.0, 0.0)",0.029,-0.246,-9.471,"(0.0, 0.0, 0.0, 0.0, 0.0, 0.0, 0.0, 0.0, 0.0)",0,0,0,imu1_frame,3.447e-05,5.8700000000000005e-06,1.219e-05,"(0.0, 0.0, 0.0, 0.0, 0.0, 0.0, 0.0, 0.0, 0.0)","b'$VNYMR,-170.900,-001.478,-000.743,+00.3447,+00.0587,+00.1219,+00.029,-00.246,-09.471,-00.019405,+00.001408,-00.194356*60\r\n'"
1711483464.556611,123,1711483464,555734872,imu1_frame,0,0,0,imu1_frame,-0.013382350611031262,0.005670544388539081,-0.996933286346262,0.07689460444857613,"(0.0, 0.0, 0.0, 0.0, 0.0, 0.0, 0.0, 0.0, 0.0)",-0.019824,0.000462,-0.189661,"(0.0, 0.0, 0.0, 0.0, 0.0, 0.0, 0.0, 0.0, 0.0)",-0.056,-0.166,-9.63,"(0.0, 0.0, 0.0, 0.0, 0.0, 0.0, 0.0, 0.0, 0.0)",0,0,0,imu1_frame,3.458e-05,5.39e-06,1.1940000000000001e-05,"(0.0, 0.0, 0.0, 0.0, 0.0, 0.0, 0.0, 0.0, 0.0)","b'$VNYMR,-171.169,-001.479,-000.766,+00.3458,+00.0539,+00.1194,-00.056,-00.166,-09.630,-00.019824,+00.000462,-00.189661*6A\r\n'"
1711483464.580421,124,1711483464,579739332,imu1_frame,0,0,0,imu1_frame,-0.013443676637515545,0.0058798738715860905,-0.9971079272134603,0.07456860015983177,"(0.0, 0.0, 0.0, 0.0, 0.0, 0.0, 0.0, 0.0, 0.0)",-0.017998,-0.003741,-0.189025,"(0.0, 0.0, 0.0, 0.0, 0.0, 0.0, 0.0, 0.0, 0.0)",0.006,-0.236,-9.558,"(0.0, 0.0, 0.0, 0.0, 0.0, 0.0, 0.0, 0.0, 0.0)",0,0,0,imu1_frame,3.493e-05,5.9799999999999995e-06,1.1550000000000001e-05,"(0.0, 0.0, 0.0, 0.0, 0.0, 0.0, 0.0, 0.0, 0.0)","b'$VNYMR,-171.436,-001.486,-000.787,+00.3493,+00.0598,+00.1155,+00.006,-00.236,-09.558,-00.017998,-00.003741,-00.189025*6A\r\n'"
1711483464.605952,125,1711483464,604988574,imu1_frame,0,0,0,imu1_frame,-0.013519035385118961,0.006053324881547857,-0.9972764689771463,0.07225121012557156,"(0.0, 0.0, 0.0, 0.0, 0.0, 0.0, 0.0, 0.0, 0.0)",-0.015673,-0.005937,-0.188519,"(0.0, 0.0, 0.0, 0.0, 0.0, 0.0, 0.0, 0.0, 0.0)",-0.053,-0.171,-9.56,"(0.0, 0.0, 0.0, 0.0, 0.0, 0.0, 0.0, 0.0, 0.0)",0,0,0,imu1_frame,3.505e-05,5.86e-06,1.103e-05,"(0.0, 0.0, 0.0, 0.0, 0.0, 0.0, 0.0, 0.0, 0.0)","b'$VNYMR,-171.702,-001.495,-000.804,+00.3505,+00.0586,+00.1103,-00.053,-00.171,-09.560,-00.015673,-00.005937,-00.188519*6D\r\n'"
1711483464.6345327,126,1711483464,634152889,imu1_frame,0,0,0,imu1_frame,-0.013590214082662406,0.00617445599508951,-0.9974374813388349,0.0699689430732883,"(0.0, 0.0, 0.0, 0.0, 0.0, 0.0, 0.0, 0.0, 0.0)",-0.012714,-0.004682,-0.18495,"(0.0, 0.0, 0.0, 0.0, 0.0, 0.0, 0.0, 0.0, 0.0)",-0.041,-0.142,-9.676,"(0.0, 0.0, 0.0, 0.0, 0.0, 0.0, 0.0, 0.0, 0.0)",0,0,0,imu1_frame,3.4699999999999996e-05,5.510000000000001e-06,1.168e-05,"(0.0, 0.0, 0.0, 0.0, 0.0, 0.0, 0.0, 0.0, 0.0)","b'$VNYMR,-171.964,-001.504,-000.815,+00.3470,+00.0551,+00.1168,-00.041,-00.142,-09.676,-00.012714,-00.004682,-00.184950*63\r\n'"
1711483464.6557326,127,1711483464,654585838,imu1_frame,0,0,0,imu1_frame,-0.013659246173380624,0.006269588147870011,-0.9975922394080531,0.06770407027097065,"(0.0, 0.0, 0.0, 0.0, 0.0, 0.0, 0.0, 0.0, 0.0)",-0.00983,-0.004048,-0.182113,"(0.0, 0.0, 0.0, 0.0, 0.0, 0.0, 0.0, 0.0, 0.0)",-0.147,-0.106,-9.821,"(0.0, 0.0, 0.0, 0.0, 0.0, 0.0, 0.0, 0.0, 0.0)",0,0,0,imu1_frame,3.505e-05,5.5e-06,1.1959999999999999e-05,"(0.0, 0.0, 0.0, 0.0, 0.0, 0.0, 0.0, 0.0, 0.0)","b'$VNYMR,-172.224,-001.513,-000.823,+00.3505,+00.0550,+00.1196,-00.147,-00.106,-09.821,-00.009830,-00.004048,-00.182113*6E\r\n'"
1711483464.6818173,128,1711483464,681207656,imu1_frame,0,0,0,imu1_frame,-0.013681175745654126,0.006315209255610658,-0.9977404481031937,0.0654747415505587,"(0.0, 0.0, 0.0, 0.0, 0.0, 0.0, 0.0, 0.0, 0.0)",-0.005728,6e-06,-0.180734,"(0.0, 0.0, 0.0, 0.0, 0.0, 0.0, 0.0, 0.0, 0.0)",-0.139,-0.082,-9.885,"(0.0, 0.0, 0.0, 0.0, 0.0, 0.0, 0.0, 0.0, 0.0)",0,0,0,imu1_frame,3.458e-05,5.8700000000000005e-06,1.023e-05,"(0.0, 0.0, 0.0, 0.0, 0.0, 0.0, 0.0, 0.0, 0.0)","b'$VNYMR,-172.480,-001.517,-000.825,+00.3458,+00.0587,+00.1023,-00.139,-00.082,-09.885,-00.005728,+00.000006,-00.180734*61\r\n'"
1711483464.7044501,129,1711483464,703853368,imu1_frame,0,0,0,imu1_frame,-0.013718343494368913,0.006324660511923646,-0.9978820153959386,0.06327155024590025,"(0.0, 0.0, 0.0, 0.0, 0.0, 0.0, 0.0, 0.0, 0.0)",-0.002718,-0.002447,-0.176204,"(0.0, 0.0, 0.0, 0.0, 0.0, 0.0, 0.0, 0.0, 0.0)",-0.155,-0.096,-9.88,"(0.0, 0.0, 0.0, 0.0, 0.0, 0.0, 0.0, 0.0, 0.0)",0,0,0,imu1_frame,3.447e-05,6.36e-06,9.82e-06,"(0.0, 0.0, 0.0, 0.0, 0.0, 0.0, 0.0, 0.0, 0.0)","b'$VNYMR,-172.733,-001.523,-000.823,+00.3447,+00.0636,+00.0982,-00.155,-00.096,-09.880,-00.002718,-00.002447,-00.176204*6B\r\n'"
1711483464.7304096,130,1711483464,729972124,imu1_frame,0,0,0,imu1_frame,-0.013780285056004267,0.006306093941131838,-0.9980164101417092,0.06110304420269359,"(0.0, 0.0, 0.0, 0.0, 0.0, 0.0, 0.0, 0.0, 0.0)",-0.00034,-0.005028,-0.176089,"(0.0, 0.0, 0.0, 0.0, 0.0, 0.0, 0.0, 0.0, 0.0)",-0.096,-0.063,-9.911,"(0.0, 0.0, 0.0, 0.0, 0.0, 0.0, 0.0, 0.0, 0.0)",0,0,0,imu1_frame,3.505e-05,6.1e-06,1.116e-05,"(0.0, 0.0, 0.0, 0.0, 0.0, 0.0, 0.0, 0.0, 0.0)","b'$VNYMR,-172.982,-001.532,-000.818,+00.3505,+00.0610,+00.1116,-00.096,-00.063,-09.911,-00.000340,-00.005028,-00.176089*6B\r\n'"
1711483464.75353,131,1711483464,753203630,imu1_frame,0,0,0,imu1_frame,-0.013860361635913504,0.006295384277721896,-0.9981452876719754,0.05894271125717845,"(0.0, 0.0, 0.0, 0.0, 0.0, 0.0, 0.0, 0.0, 0.0)",-0.002627,-0.004422,-0.176008,"(0.0, 0.0, 0.0, 0.0, 0.0, 0.0, 0.0, 0.0, 0.0)",-0.188,-0.092,-9.724,"(0.0, 0.0, 0.0, 0.0, 0.0, 0.0, 0.0, 0.0, 0.0)",0,0,0,imu1_frame,3.563e-05,5.6e-06,1.185e-05,"(0.0, 0.0, 0.0, 0.0, 0.0, 0.0, 0.0, 0.0, 0.0)","b'$VNYMR,-173.230,-001.543,-000.814,+00.3563,+00.0560,+00.1185,-00.188,-00.092,-09.724,-00.002627,-00.004422,-00.176008*64\r\n'"
1711483464.7787685,132,1711483464,778357267,imu1_frame,0,0,0,imu1_frame,-0.013913423191147554,0.006269119431187791,-0.9982699312394718,0.05678256052523128,"(0.0, 0.0, 0.0, 0.0, 0.0, 0.0, 0.0, 0.0, 0.0)",0.002092,-0.00239,-0.177852,"(0.0, 0.0, 0.0, 0.0, 0.0, 0.0, 0.0, 0.0, 0.0)",-0.166,-0.132,-9.691,"(0.0, 0.0, 0.0, 0.0, 0.0, 0.0, 0.0, 0.0, 0.0)",0,0,0,imu1_frame,3.54e-05,6.3299999999999995e-06,1.131e-05,"(0.0, 0.0, 0.0, 0.0, 0.0, 0.0, 0.0, 0.0, 0.0)","b'$VNYMR,-173.478,-001.551,-000.808,+00.3540,+00.0633,+00.1131,-00.166,-00.132,-09.691,+00.002092,-00.002390,-00.177852*6F\r\n'"
1711483464.8116689,133,1711483464,811150312,imu1_frame,0,0,0,imu1_frame,-0.013920608837998621,0.00620218563962906,-0.99839169169221,0.0546056728082174,"(0.0, 0.0, 0.0, 0.0, 0.0, 0.0, 0.0, 0.0, 0.0)",0.006339,0.000544,-0.179508,"(0.0, 0.0, 0.0, 0.0, 0.0, 0.0, 0.0, 0.0, 0.0)",-0.207,-0.198,-9.639,"(0.0, 0.0, 0.0, 0.0, 0.0, 0.0, 0.0, 0.0, 0.0)",0,0,0,imu1_frame,3.575e-05,6.08e-06,1.198e-05,"(0.0, 0.0, 0.0, 0.0, 0.0, 0.0, 0.0, 0.0, 0.0)","b'$VNYMR,-173.728,-001.554,-000.797,+00.3575,+00.0608,+00.1198,-00.207,-00.198,-09.639,+00.006339,+00.000544,-00.179508*6F\r\n'"
1711483464.830864,134,1711483464,830275297,imu1_frame,0,0,0,imu1_frame,-0.013934525315355271,0.006091407798150929,-0.9985093038763281,0.05242035699690559,"(0.0, 0.0, 0.0, 0.0, 0.0, 0.0, 0.0, 0.0, 0.0)",0.006153,-0.000585,-0.177584,"(0.0, 0.0, 0.0, 0.0, 0.0, 0.0, 0.0, 0.0, 0.0)",-0.223,-0.22,-9.673,"(0.0, 0.0, 0.0, 0.0, 0.0, 0.0, 0.0, 0.0, 0.0)",0,0,0,imu1_frame,3.5510000000000004e-05,5.6e-06,1.184e-05,"(0.0, 0.0, 0.0, 0.0, 0.0, 0.0, 0.0, 0.0, 0.0)","b'$VNYMR,-173.979,-001.558,-000.781,+00.3551,+00.0560,+00.1184,-00.223,-00.220,-09.673,+00.006153,-00.000585,-00.177584*6F\r\n'"
1711483464.8558722,135,1711483464,855095863,imu1_frame,0,0,0,imu1_frame,-0.013951185419323966,0.006024294462220965,-0.9986218496827446,0.0502341879385112,"(0.0, 0.0, 0.0, 0.0, 0.0, 0.0, 0.0, 0.0, 0.0)",0.000668,-0.001769,-0.177983,"(0.0, 0.0, 0.0, 0.0, 0.0, 0.0, 0.0, 0.0, 0.0)",-0.226,-0.261,-9.491,"(0.0, 0.0, 0.0, 0.0, 0.0, 0.0, 0.0, 0.0, 0.0)",0,0,0,imu1_frame,3.552e-05,6.44e-06,1.157e-05,"(0.0, 0.0, 0.0, 0.0, 0.0, 0.0, 0.0, 0.0, 0.0)","b'$VNYMR,-174.230,-001.562,-000.770,+00.3552,+00.0644,+00.1157,-00.226,-00.261,-09.491,+00.000668,-00.001769,-00.177983*6C\r\n'"
1711483464.9069219,136,1711483464,906349420,imu1_frame,0,0,0,imu1_frame,-0.01398851963758406,0.0060175730483802686,-0.9987294189961053,0.048038086604881514,"(0.0, 0.0, 0.0, 0.0, 0.0, 0.0, 0.0, 0.0, 0.0)",-0.003009,-0.002106,-0.178513,"(0.0, 0.0, 0.0, 0.0, 0.0, 0.0, 0.0, 0.0, 0.0)",-0.222,-0.242,-9.576,"(0.0, 0.0, 0.0, 0.0, 0.0, 0.0, 0.0, 0.0, 0.0)",0,0,0,imu1_frame,3.564e-05,6.3200000000000005e-06,1.158e-05,"(0.0, 0.0, 0.0, 0.0, 0.0, 0.0, 0.0, 0.0, 0.0)","b'$VNYMR,-174.482,-001.568,-000.766,+00.3564,+00.0632,+00.1158,-00.222,-00.242,-09.576,-00.003009,-00.002106,-00.178513*6A\r\n'"
1711483464.9159195,137,1711483464,915020227,imu1_frame,0,0,0,imu1_frame,-0.014001801683367033,0.006055832372312141,-0.998832242255585,0.045841338053971795,"(0.0, 0.0, 0.0, 0.0, 0.0, 0.0, 0.0, 0.0, 0.0)",-0.005131,-0.000352,-0.180017,"(0.0, 0.0, 0.0, 0.0, 0.0, 0.0, 0.0, 0.0, 0.0)",-0.208,-0.326,-9.448,"(0.0, 0.0, 0.0, 0.0, 0.0, 0.0, 0.0, 0.0, 0.0)",0,0,0,imu1_frame,3.563e-05,5.72e-06,1.185e-05,"(0.0, 0.0, 0.0, 0.0, 0.0, 0.0, 0.0, 0.0, 0.0)","b'$VNYMR,-174.734,-001.571,-000.767,+00.3563,+00.0572,+00.1185,-00.208,-00.326,-09.448,-00.005131,-00.000352,-00.180017*61\r\n'"
1711483464.9323492,138,1711483464,931533575,imu1_frame,0,0,0,imu1_frame,-0.014030841091126938,0.006058667422891358,-0.9989305913370442,0.04363601423546159,"(0.0, 0.0, 0.0, 0.0, 0.0, 0.0, 0.0, 0.0, 0.0)",-1.5e-05,0.000449,-0.178254,"(0.0, 0.0, 0.0, 0.0, 0.0, 0.0, 0.0, 0.0, 0.0)",-0.256,-0.378,-9.456,"(0.0, 0.0, 0.0, 0.0, 0.0, 0.0, 0.0, 0.0, 0.0)",0,0,0,imu1_frame,3.552e-05,6.45e-06,1.092e-05,"(0.0, 0.0, 0.0, 0.0, 0.0, 0.0, 0.0, 0.0, 0.0)","b'$VNYMR,-174.987,-001.576,-000.764,+00.3552,+00.0645,+00.1092,-00.256,-00.378,-09.456,-00.000015,+00.000449,-00.178254*65\r\n'"
1711483464.9583943,139,1711483464,957834720,imu1_frame,0,0,0,imu1_frame,-0.01404801616759108,0.0059834377335635435,-0.9990242978824894,0.041440366251309355,"(0.0, 0.0, 0.0, 0.0, 0.0, 0.0, 0.0, 0.0, 0.0)",0.004614,0.001503,-0.180114,"(0.0, 0.0, 0.0, 0.0, 0.0, 0.0, 0.0, 0.0, 0.0)",-0.303,-0.383,-9.57,"(0.0, 0.0, 0.0, 0.0, 0.0, 0.0, 0.0, 0.0, 0.0)",0,0,0,imu1_frame,3.587e-05,5.96e-06,1.08e-05,"(0.0, 0.0, 0.0, 0.0, 0.0, 0.0, 0.0, 0.0, 0.0)","b'$VNYMR,-175.239,-001.580,-000.752,+00.3587,+00.0596,+00.1080,-00.303,-00.383,-09.570,+00.004614,+00.001503,-00.180114*6B\r\n'"
1711483465.0043964,140,1711483465,3401517,imu1_frame,0,0,0,imu1_frame,-0.014015383486701427,0.0059625687585024316,-0.9991132211000988,0.03925287534061746,"(0.0, 0.0, 0.0, 0.0, 0.0, 0.0, 0.0, 0.0, 0.0)",-0.004053,0.006475,-0.177622,"(0.0, 0.0, 0.0, 0.0, 0.0, 0.0, 0.0, 0.0, 0.0)",-0.309,-0.493,-9.757,"(0.0, 0.0, 0.0, 0.0, 0.0, 0.0, 0.0, 0.0, 0.0)",0,0,0,imu1_frame,3.587e-05,6.2e-06,1.1459999999999999e-05,"(0.0, 0.0, 0.0, 0.0, 0.0, 0.0, 0.0, 0.0, 0.0)","b'$VNYMR,-175.490,-001.578,-000.746,+00.3587,+00.0620,+00.1146,-00.309,-00.493,-09.757,-00.004053,+00.006475,-00.177622*6C\r\n'"
1711483465.0132575,141,1711483465,12344360,imu1_frame,0,0,0,imu1_frame,-0.013952718388747398,0.006064595469914181,-0.999196118106026,0.03708988936622756,"(0.0, 0.0, 0.0, 0.0, 0.0, 0.0, 0.0, 0.0, 0.0)",-0.017082,0.007247,-0.173145,"(0.0, 0.0, 0.0, 0.0, 0.0, 0.0, 0.0, 0.0, 0.0)",-0.402,-0.478,-9.837,"(0.0, 0.0, 0.0, 0.0, 0.0, 0.0, 0.0, 0.0, 0.0)",0,0,0,imu1_frame,3.575e-05,6.08e-06,1.0929999999999999e-05,"(0.0, 0.0, 0.0, 0.0, 0.0, 0.0, 0.0, 0.0, 0.0)","b'$VNYMR,-175.738,-001.572,-000.754,+00.3575,+00.0608,+00.1093,-00.402,-00.478,-09.837,-00.017082,+00.007247,-00.173145*60\r\n'"
1711483465.034547,142,1711483465,33397674,imu1_frame,0,0,0,imu1_frame,-0.01386753377477192,0.006280540776549072,-0.9992736647778293,0.03493406927407856,"(0.0, 0.0, 0.0, 0.0, 0.0, 0.0, 0.0, 0.0, 0.0)",-0.023251,0.008111,-0.173267,"(0.0, 0.0, 0.0, 0.0, 0.0, 0.0, 0.0, 0.0, 0.0)",-0.322,-0.357,-9.822,"(0.0, 0.0, 0.0, 0.0, 0.0, 0.0, 0.0, 0.0, 0.0)",0,0,0,imu1_frame,3.598e-05,6.3100000000000006e-06,1.133e-05,"(0.0, 0.0, 0.0, 0.0, 0.0, 0.0, 0.0, 0.0, 0.0)","b'$VNYMR,-175.985,-001.563,-000.775,+00.3598,+00.0631,+00.1133,-00.322,-00.357,-09.822,-00.023251,+00.008111,-00.173267*65\r\n'"
1711483465.075427,143,1711483465,73553085,imu1_frame,0,0,0,imu1_frame,-0.013809190026898871,0.006538646924720101,-0.9993453137143689,0.0327947606230665,"(0.0, 0.0, 0.0, 0.0, 0.0, 0.0, 0.0, 0.0, 0.0)",-0.021623,0.006645,-0.171552,"(0.0, 0.0, 0.0, 0.0, 0.0, 0.0, 0.0, 0.0, 0.0)",-0.236,-0.278,-9.733,"(0.0, 0.0, 0.0, 0.0, 0.0, 0.0, 0.0, 0.0, 0.0)",0,0,0,imu1_frame,3.575e-05,6.08e-06,1.106e-05,"(0.0, 0.0, 0.0, 0.0, 0.0, 0.0, 0.0, 0.0, 0.0)","b'$VNYMR,-176.230,-001.557,-000.801,+00.3575,+00.0608,+00.1106,-00.236,-00.278,-09.733,-00.021623,+00.006645,-00.171552*68\r\n'"
1711483465.1210082,144,1711483465,120324611,imu1_frame,0,0,0,imu1_frame,-0.013791984353361568,0.006742494943971991,-0.9994112977629371,0.030681881189539555,"(0.0, 0.0, 0.0, 0.0, 0.0, 0.0, 0.0, 0.0, 0.0)",-0.017208,0.000789,-0.170873,"(0.0, 0.0, 0.0, 0.0, 0.0, 0.0, 0.0, 0.0, 0.0)",-0.188,-0.158,-9.61,"(0.0, 0.0, 0.0, 0.0, 0.0, 0.0, 0.0, 0.0, 0.0)",0,0,0,imu1_frame,3.599e-05,6.55e-06,1.133e-05,"(0.0, 0.0, 0.0, 0.0, 0.0, 0.0, 0.0, 0.0, 0.0)","b'$VNYMR,-176.472,-001.556,-000.821,+00.3599,+00.0655,+00.1133,-00.188,-00.158,-09.610,-00.017208,+00.000789,-00.170873*60\r\n'"
1711483465.140674,145,1711483465,139502286,imu1_frame,0,0,0,imu1_frame,-0.013799457326920759,0.00691925881008265,-0.9994723662472833,0.02857775258935309,"(0.0, 0.0, 0.0, 0.0, 0.0, 0.0, 0.0, 0.0, 0.0)",-0.018043,0.000242,-0.171137,"(0.0, 0.0, 0.0, 0.0, 0.0, 0.0, 0.0, 0.0, 0.0)",-0.245,-0.169,-9.579,"(0.0, 0.0, 0.0, 0.0, 0.0, 0.0, 0.0, 0.0, 0.0)",0,0,0,imu1_frame,3.587e-05,6.44e-06,1.067e-05,"(0.0, 0.0, 0.0, 0.0, 0.0, 0.0, 0.0, 0.0, 0.0)","b'$VNYMR,-176.713,-001.558,-000.838,+00.3587,+00.0644,+00.1067,-00.245,-00.169,-09.579,-00.018043,+00.000242,-00.171137*69\r\n'"
1711483465.16186,146,1711483465,161164522,imu1_frame,0,0,0,imu1_frame,-0.013815493958836217,0.0071131747628547905,-0.9995285104994668,0.026481910244238634,"(0.0, 0.0, 0.0, 0.0, 0.0, 0.0, 0.0, 0.0, 0.0)",-0.019703,-0.000382,-0.171713,"(0.0, 0.0, 0.0, 0.0, 0.0, 0.0, 0.0, 0.0, 0.0)",-0.242,-0.218,-9.55,"(0.0, 0.0, 0.0, 0.0, 0.0, 0.0, 0.0, 0.0, 0.0)",0,0,0,imu1_frame,3.587e-05,6.44e-06,1.132e-05,"(0.0, 0.0, 0.0, 0.0, 0.0, 0.0, 0.0, 0.0, 0.0)","b'$VNYMR,-176.953,-001.561,-000.857,+00.3587,+00.0644,+00.1132,-00.242,-00.218,-09.550,-00.019703,-00.000382,-00.171713*61\r\n'"
1711483465.182505,147,1711483465,181836366,imu1_frame,0,0,0,imu1_frame,-0.013813970801036085,0.007333785406826736,-0.9995802749934364,0.02438572628323401,"(0.0, 0.0, 0.0, 0.0, 0.0, 0.0, 0.0, 0.0, 0.0)",-0.019787,0.00252,-0.169333,"(0.0, 0.0, 0.0, 0.0, 0.0, 0.0, 0.0, 0.0, 0.0)",-0.272,-0.21,-9.577,"(0.0, 0.0, 0.0, 0.0, 0.0, 0.0, 0.0, 0.0, 0.0)",0,0,0,imu1_frame,3.622e-05,6.19e-06,1.029e-05,"(0.0, 0.0, 0.0, 0.0, 0.0, 0.0, 0.0, 0.0, 0.0)","b'$VNYMR,-177.193,-001.562,-000.879,+00.3622,+00.0619,+00.1029,-00.272,-00.210,-09.577,-00.019787,+00.002520,-00.169333*63\r\n'"
1711483465.201406,148,1711483465,200846195,imu1_frame,0,0,0,imu1_frame,-0.013785350681059572,0.007546044863353631,-0.9996276353337207,0.022307218352681846,"(0.0, 0.0, 0.0, 0.0, 0.0, 0.0, 0.0, 0.0, 0.0)",-0.018463,0.005008,-0.169202,"(0.0, 0.0, 0.0, 0.0, 0.0, 0.0, 0.0, 0.0, 0.0)",-0.287,-0.213,-9.591,"(0.0, 0.0, 0.0, 0.0, 0.0, 0.0, 0.0, 0.0, 0.0)",0,0,0,imu1_frame,3.622e-05,6.3100000000000006e-06,1.095e-05,"(0.0, 0.0, 0.0, 0.0, 0.0, 0.0, 0.0, 0.0, 0.0)","b'$VNYMR,-177.431,-001.560,-000.900,+00.3622,+00.0631,+00.1095,-00.287,-00.213,-09.591,-00.018463,+00.005008,-00.169202*6C\r\n'"
1711483465.2151198,149,1711483465,214503765,imu1_frame,0,0,0,imu1_frame,-0.013737535926409302,0.007705990557554066,-0.9996709255436843,0.020246936529537823,"(0.0, 0.0, 0.0, 0.0, 0.0, 0.0, 0.0, 0.0, 0.0)",-0.014773,0.006392,-0.164692,"(0.0, 0.0, 0.0, 0.0, 0.0, 0.0, 0.0, 0.0, 0.0)",-0.309,-0.168,-9.501,"(0.0, 0.0, 0.0, 0.0, 0.0, 0.0, 0.0, 0.0, 0.0)",0,0,0,imu1_frame,3.598e-05,6.19e-06,1.081e-05,"(0.0, 0.0, 0.0, 0.0, 0.0, 0.0, 0.0, 0.0, 0.0)","b'$VNYMR,-177.667,-001.556,-000.915,+00.3598,+00.0619,+00.1081,-00.309,-00.168,-09.501,-00.014773,+00.006392,-00.164692*6D\r\n'"
1711483465.2624447,150,1711483465,253161907,imu1_frame,0,0,0,imu1_frame,-0.013705821231764549,0.007812745976241391,-0.9997096509977655,0.01821332387565887,"(0.0, 0.0, 0.0, 0.0, 0.0, 0.0, 0.0, 0.0, 0.0)",-0.011078,0.003327,-0.164504,"(0.0, 0.0, 0.0, 0.0, 0.0, 0.0, 0.0, 0.0, 0.0)",-0.143,-0.152,-9.516,"(0.0, 0.0, 0.0, 0.0, 0.0, 0.0, 0.0, 0.0, 0.0)",0,0,0,imu1_frame,3.6570000000000004e-05,6.54e-06,1.096e-05,"(0.0, 0.0, 0.0, 0.0, 0.0, 0.0, 0.0, 0.0, 0.0)","b'$VNYMR,-177.900,-001.554,-000.924,+00.3657,+00.0654,+00.1096,-00.143,-00.152,-09.516,-00.011078,+00.003327,-00.164504*61\r\n'"
1711483465.271619,151,1711483465,270145177,imu1_frame,0,0,0,imu1_frame,-0.013699616516387054,0.00789256224671105,-0.9997438060581041,0.016197228680913202,"(0.0, 0.0, 0.0, 0.0, 0.0, 0.0, 0.0, 0.0, 0.0)",-0.00972,0.000212,-0.162824,"(0.0, 0.0, 0.0, 0.0, 0.0, 0.0, 0.0, 0.0, 0.0)",-0.24,-0.069,-9.695,"(0.0, 0.0, 0.0, 0.0, 0.0, 0.0, 0.0, 0.0, 0.0)",0,0,0,imu1_frame,3.634e-05,7.0300000000000005e-06,1.0549999999999999e-05,"(0.0, 0.0, 0.0, 0.0, 0.0, 0.0, 0.0, 0.0, 0.0)","b'$VNYMR,-178.131,-001.555,-000.930,+00.3634,+00.0703,+00.1055,-00.240,-00.069,-09.695,-00.009720,+00.000212,-00.162824*66\r\n'"
1711483465.2833788,152,1711483465,281896352,imu1_frame,0,0,0,imu1_frame,-0.013736343083443698,0.00793673800365834,-0.9997734581263119,0.014189908199514692,"(0.0, 0.0, 0.0, 0.0, 0.0, 0.0, 0.0, 0.0, 0.0)",-0.005086,-0.002892,-0.162645,"(0.0, 0.0, 0.0, 0.0, 0.0, 0.0, 0.0, 0.0, 0.0)",-0.223,-0.107,-9.574,"(0.0, 0.0, 0.0, 0.0, 0.0, 0.0, 0.0, 0.0, 0.0)",0,0,0,imu1_frame,3.622e-05,6.19e-06,1.0549999999999999e-05,"(0.0, 0.0, 0.0, 0.0, 0.0, 0.0, 0.0, 0.0, 0.0)","b'$VNYMR,-178.361,-001.561,-000.932,+00.3622,+00.0619,+00.1055,-00.223,-00.107,-09.574,-00.005086,-00.002892,-00.162645*61\r\n'"
1711483465.3097568,153,1711483465,308951616,imu1_frame,0,0,0,imu1_frame,-0.013763371829425866,0.007911401956627111,-0.9997997499726492,0.012183565553387368,"(0.0, 0.0, 0.0, 0.0, 0.0, 0.0, 0.0, 0.0, 0.0)",-0.000152,-0.000184,-0.164091,"(0.0, 0.0, 0.0, 0.0, 0.0, 0.0, 0.0, 0.0, 0.0)",-0.288,-0.167,-9.531,"(0.0, 0.0, 0.0, 0.0, 0.0, 0.0, 0.0, 0.0, 0.0)",0,0,0,imu1_frame,3.668e-05,6.4100000000000005e-06,1.11e-05,"(0.0, 0.0, 0.0, 0.0, 0.0, 0.0, 0.0, 0.0, 0.0)","b'$VNYMR,-178.591,-001.566,-000.926,+00.3668,+00.0641,+00.1110,-00.288,-00.167,-09.531,-00.000152,-00.000184,-00.164091*67\r\n'"
1711483465.354873,154,1711483465,353882789,imu1_frame,0,0,0,imu1_frame,-0.013772683488804498,0.00785160789206177,-0.9998226119218862,0.010169077279865026,"(0.0, 0.0, 0.0, 0.0, 0.0, 0.0, 0.0, 0.0, 0.0)",0.002266,0.002656,-0.164587,"(0.0, 0.0, 0.0, 0.0, 0.0, 0.0, 0.0, 0.0, 0.0)",-0.2,-0.179,-9.536,"(0.0, 0.0, 0.0, 0.0, 0.0, 0.0, 0.0, 0.0, 0.0)",0,0,0,imu1_frame,3.6570000000000004e-05,6.900000000000001e-06,1.135e-05,"(0.0, 0.0, 0.0, 0.0, 0.0, 0.0, 0.0, 0.0, 0.0)","b'$VNYMR,-178.822,-001.569,-000.916,+00.3657,+00.0690,+00.1135,-00.200,-00.179,-09.536,+00.002266,+00.002656,-00.164587*6F\r\n'"
1711483465.3763297,155,1711483465,372955083,imu1_frame,0,0,0,imu1_frame,-0.013729591423391646,0.007766386008635122,-0.9998424658332629,0.0081378795869823,"(0.0, 0.0, 0.0, 0.0, 0.0, 0.0, 0.0, 0.0, 0.0)",0.005287,0.006148,-0.165911,"(0.0, 0.0, 0.0, 0.0, 0.0, 0.0, 0.0, 0.0, 0.0)",-0.256,-0.165,-9.614,"(0.0, 0.0, 0.0, 0.0, 0.0, 0.0, 0.0, 0.0, 0.0)",0,0,0,imu1_frame,3.6570000000000004e-05,7.02e-06,1.135e-05,"(0.0, 0.0, 0.0, 0.0, 0.0, 0.0, 0.0, 0.0, 0.0)","b'$VNYMR,-179.055,-001.566,-000.903,+00.3657,+00.0702,+00.1135,-00.256,-00.165,-09.614,+00.005287,+00.006148,-00.165911*6C\r\n'"
1711483465.3834271,156,1711483465,382287263,imu1_frame,0,0,0,imu1_frame,-0.013634349238644178,0.007681709403378118,-0.9998590494952861,0.006080871965732284,"(0.0, 0.0, 0.0, 0.0, 0.0, 0.0, 0.0, 0.0, 0.0)",0.002065,0.010328,-0.166379,"(0.0, 0.0, 0.0, 0.0, 0.0, 0.0, 0.0, 0.0, 0.0)",-0.291,-0.268,-9.716,"(0.0, 0.0, 0.0, 0.0, 0.0, 0.0, 0.0, 0.0, 0.0)",0,0,0,imu1_frame,3.703e-05,6.4100000000000005e-06,1.072e-05,"(0.0, 0.0, 0.0, 0.0, 0.0, 0.0, 0.0, 0.0, 0.0)","b'$VNYMR,-179.291,-001.557,-000.890,+00.3703,+00.0641,+00.1072,-00.291,-00.268,-09.716,+00.002065,+00.010328,-00.166379*60\r\n'"
1711483465.407595,157,1711483465,406970977,imu1_frame,0,0,0,imu1_frame,-0.013478818371271331,0.007675344077939783,-0.9998715687148744,0.004031950428264326,"(0.0, 0.0, 0.0, 0.0, 0.0, 0.0, 0.0, 0.0, 0.0)",-0.005139,0.016078,-0.16547,"(0.0, 0.0, 0.0, 0.0, 0.0, 0.0, 0.0, 0.0, 0.0)",-0.272,-0.323,-9.749,"(0.0, 0.0, 0.0, 0.0, 0.0, 0.0, 0.0, 0.0, 0.0)",0,0,0,imu1_frame,3.681e-05,6.89e-06,1.044e-05,"(0.0, 0.0, 0.0, 0.0, 0.0, 0.0, 0.0, 0.0, 0.0)","b'$VNYMR,-179.526,-001.541,-000.886,+00.3681,+00.0689,+00.1044,-00.272,-00.323,-09.749,-00.005139,+00.016078,-00.165470*6C\r\n'"
1711483465.4300702,158,1711483465,429582834,imu1_frame,0,0,0,imu1_frame,-0.013280036027590808,0.007781785354267912,-0.9998795538328421,0.0019905493820998447,"(0.0, 0.0, 0.0, 0.0, 0.0, 0.0, 0.0, 0.0, 0.0)",-0.012111,0.019623,-0.166028,"(0.0, 0.0, 0.0, 0.0, 0.0, 0.0, 0.0, 0.0, 0.0)",-0.262,-0.385,-9.724,"(0.0, 0.0, 0.0, 0.0, 0.0, 0.0, 0.0, 0.0, 0.0)",0,0,0,imu1_frame,3.669e-05,7.14e-06,1.069e-05,"(0.0, 0.0, 0.0, 0.0, 0.0, 0.0, 0.0, 0.0, 0.0)","b'$VNYMR,-179.760,-001.520,-000.895,+00.3669,+00.0714,+00.1069,-00.262,-00.385,-09.724,-00.012111,+00.019623,-00.166028*62\r\n'"
1711483465.4602177,159,1711483465,459323167,imu1_frame,0,0,0,imu1_frame,-0.01302858884940789,0.00793096913872122,-0.9998836701409272,-4.2268467422598954e-05,"(0.0, 0.0, 0.0, 0.0, 0.0, 0.0, 0.0, 0.0, 0.0)",-0.015455,0.02148,-0.165586,"(0.0, 0.0, 0.0, 0.0, 0.0, 0.0, 0.0, 0.0, 0.0)",-0.224,-0.398,-9.853,"(0.0, 0.0, 0.0, 0.0, 0.0, 0.0, 0.0, 0.0, 0.0)",0,0,0,imu1_frame,3.692e-05,6.7699999999999996e-06,1.11e-05,"(0.0, 0.0, 0.0, 0.0, 0.0, 0.0, 0.0, 0.0, 0.0)","b'$VNYMR,-179.993,-001.493,-000.909,+00.3692,+00.0677,+00.1110,-00.224,-00.398,-09.853,-00.015455,+00.021480,-00.165586*63\r\n'"
1711483465.478877,160,1711483465,478352546,imu1_frame,0,0,0,imu1_frame,0.012759068641204508,-0.008079240965806441,0.999883788522247,0.0020836226202962118,"(0.0, 0.0, 0.0, 0.0, 0.0, 0.0, 0.0, 0.0, 0.0)",-0.01438,0.022642,-0.165351,"(0.0, 0.0, 0.0, 0.0, 0.0, 0.0, 0.0, 0.0, 0.0)",-0.206,-0.386,-9.819,"(0.0, 0.0, 0.0, 0.0, 0.0, 0.0, 0.0, 0.0, 0.0)",0,0,0,imu1_frame,3.739e-05,7.36e-06,1.098e-05,"(0.0, 0.0, 0.0, 0.0, 0.0, 0.0, 0.0, 0.0, 0.0)","b'$VNYMR,+179.773,-001.464,-000.923,+00.3739,+00.0736,+00.1098,-00.206,-00.386,-09.819,-00.014380,+00.022642,-00.165351*6C\r\n'"
1711483465.5031662,161,1711483465,502206325,imu1_frame,0,0,0,imu1_frame,0.012506304959006875,-0.0082614155596793,0.9998791535237332,0.004125493653533062,"(0.0, 0.0, 0.0, 0.0, 0.0, 0.0, 0.0, 0.0, 0.0)",-0.01917,0.020175,-0.166063,"(0.0, 0.0, 0.0, 0.0, 0.0, 0.0, 0.0, 0.0, 0.0)",-0.127,-0.328,-9.789,"(0.0, 0.0, 0.0, 0.0, 0.0, 0.0, 0.0, 0.0, 0.0)",0,0,0,imu1_frame,3.715e-05,6.76e-06,1.098e-05,"(0.0, 0.0, 0.0, 0.0, 0.0, 0.0, 0.0, 0.0, 0.0)","b'$VNYMR,+179.539,-001.437,-000.941,+00.3715,+00.0676,+00.1098,-00.127,-00.328,-09.789,-00.019170,+00.020175,-00.166063*6B\r\n'"
1711483465.5294101,162,1711483465,528657674,imu1_frame,0,0,0,imu1_frame,0.012296068586062572,-0.008521273515697108,0.9998691166589115,0.006159882038266032,"(0.0, 0.0, 0.0, 0.0, 0.0, 0.0, 0.0, 0.0, 0.0)",-0.025532,0.017777,-0.16574,"(0.0, 0.0, 0.0, 0.0, 0.0, 0.0, 0.0, 0.0, 0.0)",-0.061,-0.212,-9.659,"(0.0, 0.0, 0.0, 0.0, 0.0, 0.0, 0.0, 0.0, 0.0)",0,0,0,imu1_frame,3.728e-05,7.6e-06,1.124e-05,"(0.0, 0.0, 0.0, 0.0, 0.0, 0.0, 0.0, 0.0, 0.0)","b'$VNYMR,+179.306,-001.415,-000.968,+00.3728,+00.0760,+00.1124,-00.061,-00.212,-09.659,-00.025532,+00.017777,-00.165740*6B\r\n'"
1711483465.5543973,163,1711483465,553513050,imu1_frame,0,0,0,imu1_frame,0.012101540984268567,-0.008833224053986347,0.9998538876183374,0.00822984040642702,"(0.0, 0.0, 0.0, 0.0, 0.0, 0.0, 0.0, 0.0, 0.0)",-0.026033,0.01509,-0.168492,"(0.0, 0.0, 0.0, 0.0, 0.0, 0.0, 0.0, 0.0, 0.0)",-0.056,-0.089,-9.604,"(0.0, 0.0, 0.0, 0.0, 0.0, 0.0, 0.0, 0.0, 0.0)",0,0,0,imu1_frame,3.751e-05,7.11e-06,1.125e-05,"(0.0, 0.0, 0.0, 0.0, 0.0, 0.0, 0.0, 0.0, 0.0)","b'$VNYMR,+179.069,-001.395,-001.001,+00.3751,+00.0711,+00.1125,-00.056,-00.089,-09.604,-00.026033,+00.015090,-00.168492*66\r\n'"
1711483465.622385,164,1711483465,615612268,imu1_frame,0,0,0,imu1_frame,0.01193240092997538,-0.009101043373530899,0.9998343421474835,0.010299372799758746,"(0.0, 0.0, 0.0, 0.0, 0.0, 0.0, 0.0, 0.0, 0.0)",-0.020968,0.014728,-0.169991,"(0.0, 0.0, 0.0, 0.0, 0.0, 0.0, 0.0, 0.0, 0.0)",-0.145,-0.027,-9.575,"(0.0, 0.0, 0.0, 0.0, 0.0, 0.0, 0.0, 0.0, 0.0)",0,0,0,imu1_frame,3.7159999999999997e-05,7.12e-06,1.032e-05,"(0.0, 0.0, 0.0, 0.0, 0.0, 0.0, 0.0, 0.0, 0.0)","b'$VNYMR,+178.832,-001.378,-001.029,+00.3716,+00.0712,+00.1032,-00.145,-00.027,-09.575,-00.020968,+00.014728,-00.169991*66\r\n'"
1711483465.6463013,165,1711483465,642895698,imu1_frame,0,0,0,imu1_frame,0.011772144511277925,-0.0092637087507629,0.9998111952203117,0.01237635753839677,"(0.0, 0.0, 0.0, 0.0, 0.0, 0.0, 0.0, 0.0, 0.0)",-0.009774,0.013512,-0.168783,"(0.0, 0.0, 0.0, 0.0, 0.0, 0.0, 0.0, 0.0, 0.0)",-0.072,-0.06,-9.563,"(0.0, 0.0, 0.0, 0.0, 0.0, 0.0, 0.0, 0.0, 0.0)",0,0,0,imu1_frame,3.752e-05,8.19e-06,1.059e-05,"(0.0, 0.0, 0.0, 0.0, 0.0, 0.0, 0.0, 0.0, 0.0)","b'$VNYMR,+178.594,-001.362,-001.045,+00.3752,+00.0819,+00.1059,-00.072,-00.060,-09.563,-00.009774,+00.013512,-00.168783*66\r\n'"
1711483465.6690784,166,1711483465,667235136,imu1_frame,0,0,0,imu1_frame,0.01162175487901643,-0.009303724764187655,0.9997847357306929,0.014451910564103956,"(0.0, 0.0, 0.0, 0.0, 0.0, 0.0, 0.0, 0.0, 0.0)",-0.001985,0.012921,-0.168283,"(0.0, 0.0, 0.0, 0.0, 0.0, 0.0, 0.0, 0.0, 0.0)",-0.047,0.024,-9.628,"(0.0, 0.0, 0.0, 0.0, 0.0, 0.0, 0.0, 0.0, 0.0)",0,0,0,imu1_frame,3.751e-05,8.19e-06,1.085e-05,"(0.0, 0.0, 0.0, 0.0, 0.0, 0.0, 0.0, 0.0, 0.0)","b'$VNYMR,+178.356,-001.347,-001.047,+00.3751,+00.0819,+00.1085,-00.047,+00.024,-09.628,-00.001985,+00.012921,-00.168283*65\r\n'"
1711483465.689405,167,1711483465,687433719,imu1_frame,0,0,0,imu1_frame,0.011454909719899169,-0.009290224213333465,0.9997550755976145,0.0165004725442391,"(0.0, 0.0, 0.0, 0.0, 0.0, 0.0, 0.0, 0.0, 0.0)",-0.000217,0.014991,-0.166778,"(0.0, 0.0, 0.0, 0.0, 0.0, 0.0, 0.0, 0.0, 0.0)",-0.098,-0.075,-9.549,"(0.0, 0.0, 0.0, 0.0, 0.0, 0.0, 0.0, 0.0, 0.0)",0,0,0,imu1_frame,3.75e-05,6.51e-06,1.0870000000000001e-05,"(0.0, 0.0, 0.0, 0.0, 0.0, 0.0, 0.0, 0.0, 0.0)","b'$VNYMR,+178.121,-001.330,-001.043,+00.3750,+00.0651,+00.1087,-00.098,-00.075,-09.549,-00.000217,+00.014991,-00.166778*65\r\n'"
1711483465.7077844,168,1711483465,706550359,imu1_frame,0,0,0,imu1_frame,0.011288977836103662,-0.009240984403253627,0.9997218413118852,0.0185311411048647,"(0.0, 0.0, 0.0, 0.0, 0.0, 0.0, 0.0, 0.0, 0.0)",0.000818,0.014174,-0.16414,"(0.0, 0.0, 0.0, 0.0, 0.0, 0.0, 0.0, 0.0, 0.0)",-0.119,-0.087,-9.605,"(0.0, 0.0, 0.0, 0.0, 0.0, 0.0, 0.0, 0.0, 0.0)",0,0,0,imu1_frame,3.704e-05,7.37e-06,8.740000000000001e-06,"(0.0, 0.0, 0.0, 0.0, 0.0, 0.0, 0.0, 0.0, 0.0)","b'$VNYMR,+177.888,-001.313,-001.035,+00.3704,+00.0737,+00.0874,-00.119,-00.087,-09.605,+00.000818,+00.014174,-00.164140*64\r\n'"
1711483465.7320075,169,1711483465,730200767,imu1_frame,0,0,0,imu1_frame,0.011105270967056392,-0.009233984517818762,0.9996849706610251,0.020527199544463706,"(0.0, 0.0, 0.0, 0.0, 0.0, 0.0, 0.0, 0.0, 0.0)",-0.003131,0.018752,-0.160541,"(0.0, 0.0, 0.0, 0.0, 0.0, 0.0, 0.0, 0.0, 0.0)",-0.235,-0.153,-9.572,"(0.0, 0.0, 0.0, 0.0, 0.0, 0.0, 0.0, 0.0, 0.0)",0,0,0,imu1_frame,3.7619999999999996e-05,7.11e-06,9.16e-06,"(0.0, 0.0, 0.0, 0.0, 0.0, 0.0, 0.0, 0.0, 0.0)","b'$VNYMR,+177.659,-001.294,-001.032,+00.3762,+00.0711,+00.0916,-00.235,-00.153,-09.572,-00.003131,+00.018752,-00.160541*60\r\n'"
1711483465.7376091,170,1711483465,737185716,imu1_frame,0,0,0,imu1_frame,0.010877903555573776,-0.00923394161990012,0.9996446954240811,0.02251418323840054,"(0.0, 0.0, 0.0, 0.0, 0.0, 0.0, 0.0, 0.0, 0.0)",-0.004247,0.019553,-0.158516,"(0.0, 0.0, 0.0, 0.0, 0.0, 0.0, 0.0, 0.0, 0.0)",-0.127,-0.212,-9.62,"(0.0, 0.0, 0.0, 0.0, 0.0, 0.0, 0.0, 0.0, 0.0)",0,0,0,imu1_frame,3.786e-05,7.22e-06,1.0870000000000001e-05,"(0.0, 0.0, 0.0, 0.0, 0.0, 0.0, 0.0, 0.0, 0.0)","b'$VNYMR,+177.431,-001.270,-001.030,+00.3786,+00.0722,+00.1087,-00.127,-00.212,-09.620,-00.004247,+00.019553,-00.158516*62\r\n'"
1711483465.7541842,171,1711483465,753750324,imu1_frame,0,0,0,imu1_frame,0.010624439073501146,-0.009240838782588221,0.9996012769447277,0.02447478954837505,"(0.0, 0.0, 0.0, 0.0, 0.0, 0.0, 0.0, 0.0, 0.0)",-0.002364,0.023389,-0.159244,"(0.0, 0.0, 0.0, 0.0, 0.0, 0.0, 0.0, 0.0, 0.0)",-0.058,-0.259,-9.574,"(0.0, 0.0, 0.0, 0.0, 0.0, 0.0, 0.0, 0.0, 0.0)",0,0,0,imu1_frame,3.786e-05,8.06e-06,1.06e-05,"(0.0, 0.0, 0.0, 0.0, 0.0, 0.0, 0.0, 0.0, 0.0)","b'$VNYMR,+177.206,-001.243,-001.029,+00.3786,+00.0806,+00.1060,-00.058,-00.259,-09.574,-00.002364,+00.023389,-00.159244*63\r\n'"
1711483465.7895567,172,1711483465,785006761,imu1_frame,0,0,0,imu1_frame,0.0103536135910901,-0.0092377755754835,0.9995537656686111,0.026452518324777758,"(0.0, 0.0, 0.0, 0.0, 0.0, 0.0, 0.0, 0.0, 0.0)",-0.002698,0.023725,-0.160065,"(0.0, 0.0, 0.0, 0.0, 0.0, 0.0, 0.0, 0.0, 0.0)",-0.019,-0.279,-9.601,"(0.0, 0.0, 0.0, 0.0, 0.0, 0.0, 0.0, 0.0, 0.0)",0,0,0,imu1_frame,3.774e-05,7.35e-06,1.06e-05,"(0.0, 0.0, 0.0, 0.0, 0.0, 0.0, 0.0, 0.0, 0.0)","b'$VNYMR,+176.979,-001.214,-001.027,+00.3774,+00.0735,+00.1060,-00.019,-00.279,-09.601,-00.002698,+00.023725,-00.160065*66\r\n'"
1711483465.8251548,173,1711483465,823090076,imu1_frame,0,0,0,imu1_frame,0.010073294730113074,-0.009259683379277132,0.9995018790143708,0.02843907248378622,"(0.0, 0.0, 0.0, 0.0, 0.0, 0.0, 0.0, 0.0, 0.0)",-0.005886,0.023247,-0.162021,"(0.0, 0.0, 0.0, 0.0, 0.0, 0.0, 0.0, 0.0, 0.0)",-0.059,-0.328,-9.677,"(0.0, 0.0, 0.0, 0.0, 0.0, 0.0, 0.0, 0.0, 0.0)",0,0,0,imu1_frame,3.774e-05,7.71e-06,1.0860000000000001e-05,"(0.0, 0.0, 0.0, 0.0, 0.0, 0.0, 0.0, 0.0, 0.0)","b'$VNYMR,+176.751,-001.184,-001.028,+00.3774,+00.0771,+00.1086,-00.059,-00.328,-09.677,-00.005886,+00.023247,-00.162021*6A\r\n'"
1711483465.8582668,174,1711483465,855397224,imu1_frame,0,0,0,imu1_frame,0.0098167876561297,-0.009359714062292229,0.9994452382252247,0.030417794491229874,"(0.0, 0.0, 0.0, 0.0, 0.0, 0.0, 0.0, 0.0, 0.0)",-0.013346,0.020234,-0.161519,"(0.0, 0.0, 0.0, 0.0, 0.0, 0.0, 0.0, 0.0, 0.0)",-0.1,-0.268,-9.763,"(0.0, 0.0, 0.0, 0.0, 0.0, 0.0, 0.0, 0.0, 0.0)",0,0,0,imu1_frame,3.809e-05,6.98e-06,1.0889999999999999e-05,"(0.0, 0.0, 0.0, 0.0, 0.0, 0.0, 0.0, 0.0, 0.0)","b'$VNYMR,+176.524,-001.157,-001.038,+00.3809,+00.0698,+00.1089,-00.100,-00.268,-09.763,-00.013346,+00.020234,-00.161519*6F\r\n'"
1711483465.879549,175,1711483465,878533840,imu1_frame,0,0,0,imu1_frame,0.009601186192777783,-0.009530023972151639,0.9993832288699437,0.03240613707722016,"(0.0, 0.0, 0.0, 0.0, 0.0, 0.0, 0.0, 0.0, 0.0)",-0.017438,0.017216,-0.162801,"(0.0, 0.0, 0.0, 0.0, 0.0, 0.0, 0.0, 0.0, 0.0)",-0.082,-0.321,-9.658,"(0.0, 0.0, 0.0, 0.0, 0.0, 0.0, 0.0, 0.0, 0.0)",0,0,0,imu1_frame,3.809e-05,7.46e-06,1.062e-05,"(0.0, 0.0, 0.0, 0.0, 0.0, 0.0, 0.0, 0.0, 0.0)","b'$VNYMR,+176.296,-001.135,-001.056,+00.3809,+00.0746,+00.1062,-00.082,-00.321,-09.658,-00.017438,+00.017216,-00.162801*6D\r\n'"
1711483465.8896475,176,1711483465,889094591,imu1_frame,0,0,0,imu1_frame,0.009445522142507573,-0.009710487847315532,0.9993159047927119,0.034412366462447344,"(0.0, 0.0, 0.0, 0.0, 0.0, 0.0, 0.0, 0.0, 0.0)",-0.014543,0.011751,-0.164806,"(0.0, 0.0, 0.0, 0.0, 0.0, 0.0, 0.0, 0.0, 0.0)",0.009,-0.341,-9.587,"(0.0, 0.0, 0.0, 0.0, 0.0, 0.0, 0.0, 0.0, 0.0)",0,0,0,imu1_frame,3.809e-05,7.46e-06,1.1269999999999999e-05,"(0.0, 0.0, 0.0, 0.0, 0.0, 0.0, 0.0, 0.0, 0.0)","b'$VNYMR,+176.066,-001.120,-001.075,+00.3809,+00.0746,+00.1127,+00.009,-00.341,-09.587,-00.014543,+00.011751,-00.164806*68\r\n'"
1711483465.903593,177,1711483465,903092622,imu1_frame,0,0,0,imu1_frame,0.009343632413952103,-0.00983130298981068,0.9992442707638697,0.03642704160946704,"(0.0, 0.0, 0.0, 0.0, 0.0, 0.0, 0.0, 0.0, 0.0)",-0.010761,0.007984,-0.162116,"(0.0, 0.0, 0.0, 0.0, 0.0, 0.0, 0.0, 0.0, 0.0)",-0.101,-0.171,-9.633,"(0.0, 0.0, 0.0, 0.0, 0.0, 0.0, 0.0, 0.0, 0.0)",0,0,0,imu1_frame,3.786e-05,7.23e-06,9.950000000000001e-06,"(0.0, 0.0, 0.0, 0.0, 0.0, 0.0, 0.0, 0.0, 0.0)","b'$VNYMR,+175.835,-001.111,-001.087,+00.3786,+00.0723,+00.0995,-00.101,-00.171,-09.633,-00.010761,+00.007984,-00.162116*6A\r\n'"
1711483465.9287527,178,1711483465,928369045,imu1_frame,0,0,0,imu1_frame,0.009261503162479054,-0.009882578140920492,0.9991694120706375,0.03843234563328718,"(0.0, 0.0, 0.0, 0.0, 0.0, 0.0, 0.0, 0.0, 0.0)",-0.006016,0.007379,-0.162223,"(0.0, 0.0, 0.0, 0.0, 0.0, 0.0, 0.0, 0.0, 0.0)",-0.154,-0.04,-9.655,"(0.0, 0.0, 0.0, 0.0, 0.0, 0.0, 0.0, 0.0, 0.0)",0,0,0,imu1_frame,3.773e-05,6.63e-06,9.56e-06,"(0.0, 0.0, 0.0, 0.0, 0.0, 0.0, 0.0, 0.0, 0.0)","b'$VNYMR,+175.605,-001.104,-001.091,+00.3773,+00.0663,+00.0956,-00.154,-00.040,-09.655,-00.006016,+00.007379,-00.162223*6A\r\n'"
1711483465.9535518,179,1711483465,953230381,imu1_frame,0,0,0,imu1_frame,0.009189069850176527,-0.00990767804171545,0.9990910500214714,0.040428612121911844,"(0.0, 0.0, 0.0, 0.0, 0.0, 0.0, 0.0, 0.0, 0.0)",-0.004023,0.008458,-0.162756,"(0.0, 0.0, 0.0, 0.0, 0.0, 0.0, 0.0, 0.0, 0.0)",-0.051,0.106,-9.457,"(0.0, 0.0, 0.0, 0.0, 0.0, 0.0, 0.0, 0.0, 0.0)",0,0,0,imu1_frame,3.7980000000000006e-05,7.820000000000001e-06,9.17e-06,"(0.0, 0.0, 0.0, 0.0, 0.0, 0.0, 0.0, 0.0, 0.0)","b'$VNYMR,+175.376,-001.098,-001.092,+00.3798,+00.0782,+00.0917,-00.051,+00.106,-09.457,-00.004023,+00.008458,-00.162756*6B\r\n'"
1711483465.981101,180,1711483465,980788707,imu1_frame,0,0,0,imu1_frame,0.009134119921532194,-0.009924786282202702,0.9990074990692036,0.04245095139106356,"(0.0, 0.0, 0.0, 0.0, 0.0, 0.0, 0.0, 0.0, 0.0)",-0.003196,0.004143,-0.164366,"(0.0, 0.0, 0.0, 0.0, 0.0, 0.0, 0.0, 0.0, 0.0)",-0.054,0.037,-9.308,"(0.0, 0.0, 0.0, 0.0, 0.0, 0.0, 0.0, 0.0, 0.0)",0,0,0,imu1_frame,3.809e-05,7.820000000000001e-06,9.43e-06,"(0.0, 0.0, 0.0, 0.0, 0.0, 0.0, 0.0, 0.0, 0.0)","b'$VNYMR,+175.144,-001.094,-001.092,+00.3809,+00.0782,+00.0943,-00.054,+00.037,-09.308,-00.003196,+00.004143,-00.164366*63\r\n'"
1711483466.004055,181,1711483466,3551721,imu1_frame,0,0,0,imu1_frame,0.009142057853496224,-0.009909230275283815,0.9989211434965566,0.04443848567499306,"(0.0, 0.0, 0.0, 0.0, 0.0, 0.0, 0.0, 0.0, 0.0)",0.000187,-0.00239,-0.160489,"(0.0, 0.0, 0.0, 0.0, 0.0, 0.0, 0.0, 0.0, 0.0)",-0.038,-0.07,-9.271,"(0.0, 0.0, 0.0, 0.0, 0.0, 0.0, 0.0, 0.0, 0.0)",0,0,0,imu1_frame,3.809e-05,6.98e-06,9.57e-06,"(0.0, 0.0, 0.0, 0.0, 0.0, 0.0, 0.0, 0.0, 0.0)","b'$VNYMR,+174.916,-001.097,-001.088,+00.3809,+00.0698,+00.0957,-00.038,-00.070,-09.271,+00.000187,-00.002390,-00.160489*61\r\n'"
1711483466.0304825,182,1711483466,30163049,imu1_frame,0,0,0,imu1_frame,0.009212324775251789,-0.009870420854989853,0.9988304762796242,0.04642615124474318,"(0.0, 0.0, 0.0, 0.0, 0.0, 0.0, 0.0, 0.0, 0.0)",0.000776,-0.005102,-0.16104,"(0.0, 0.0, 0.0, 0.0, 0.0, 0.0, 0.0, 0.0, 0.0)",-0.048,-0.188,-9.377,"(0.0, 0.0, 0.0, 0.0, 0.0, 0.0, 0.0, 0.0, 0.0)",0,0,0,imu1_frame,3.832e-05,7.340000000000001e-06,9.05e-06,"(0.0, 0.0, 0.0, 0.0, 0.0, 0.0, 0.0, 0.0, 0.0)","b'$VNYMR,+174.688,-001.107,-001.081,+00.3832,+00.0734,+00.0905,-00.048,-00.188,-09.377,+00.000776,-00.005102,-00.161040*60\r\n'"
1711483466.0542903,183,1711483466,54076194,imu1_frame,0,0,0,imu1_frame,0.009298781706861131,-0.009867391298705876,0.998736588490052,0.04838795365562386,"(0.0, 0.0, 0.0, 0.0, 0.0, 0.0, 0.0, 0.0, 0.0)",-0.002952,-0.006353,-0.160773,"(0.0, 0.0, 0.0, 0.0, 0.0, 0.0, 0.0, 0.0, 0.0)",-0.049,-0.365,-9.519,"(0.0, 0.0, 0.0, 0.0, 0.0, 0.0, 0.0, 0.0, 0.0)",0,0,0,imu1_frame,3.832e-05,7.22e-06,9.06e-06,"(0.0, 0.0, 0.0, 0.0, 0.0, 0.0, 0.0, 0.0, 0.0)","b'$VNYMR,+174.463,-001.119,-001.078,+00.3832,+00.0722,+00.0906,-00.049,-00.365,-09.519,-00.002952,-00.006353,-00.160773*6B\r\n'"
1711483466.0804622,184,1711483466,79922676,imu1_frame,0,0,0,imu1_frame,0.009425697462219008,-0.009928013752736905,0.9986373405374517,0.050359238026025745,"(0.0, 0.0, 0.0, 0.0, 0.0, 0.0, 0.0, 0.0, 0.0)",-0.007438,-0.008002,-0.161562,"(0.0, 0.0, 0.0, 0.0, 0.0, 0.0, 0.0, 0.0, 0.0)",-0.14,-0.39,-9.676,"(0.0, 0.0, 0.0, 0.0, 0.0, 0.0, 0.0, 0.0, 0.0)",0,0,0,imu1_frame,3.833e-05,7.93e-06,9.44e-06,"(0.0, 0.0, 0.0, 0.0, 0.0, 0.0, 0.0, 0.0, 0.0)","b'$VNYMR,+174.237,-001.136,-001.082,+00.3833,+00.0793,+00.0944,-00.140,-00.390,-09.676,-00.007438,-00.008002,-00.161562*6F\r\n'"
1711483466.10568,185,1711483466,105392217,imu1_frame,0,0,0,imu1_frame,0.009543977924695994,-0.009980172409078059,0.9985334435943891,0.0523475946686106,"(0.0, 0.0, 0.0, 0.0, 0.0, 0.0, 0.0, 0.0, 0.0)",-0.005665,-0.008479,-0.162675,"(0.0, 0.0, 0.0, 0.0, 0.0, 0.0, 0.0, 0.0, 0.0)",-0.177,-0.304,-9.939,"(0.0, 0.0, 0.0, 0.0, 0.0, 0.0, 0.0, 0.0, 0.0)",0,0,0,imu1_frame,3.867e-05,7.45e-06,9.2e-06,"(0.0, 0.0, 0.0, 0.0, 0.0, 0.0, 0.0, 0.0, 0.0)","b'$VNYMR,+174.009,-001.152,-001.085,+00.3867,+00.0745,+00.0920,-00.177,-00.304,-09.939,-00.005665,-00.008479,-00.162675*66\r\n'"
1711483466.1285272,186,1711483466,128243446,imu1_frame,0,0,0,imu1_frame,0.00969042280520941,-0.009990862680131217,0.9984247752924128,0.05435298014882144,"(0.0, 0.0, 0.0, 0.0, 0.0, 0.0, 0.0, 0.0, 0.0)",-0.001074,-0.010863,-0.162713,"(0.0, 0.0, 0.0, 0.0, 0.0, 0.0, 0.0, 0.0, 0.0)",-0.274,-0.289,-9.987,"(0.0, 0.0, 0.0, 0.0, 0.0, 0.0, 0.0, 0.0, 0.0)",0,0,0,imu1_frame,3.867e-05,7.57e-06,8.799999999999999e-06,"(0.0, 0.0, 0.0, 0.0, 0.0, 0.0, 0.0, 0.0, 0.0)","b'$VNYMR,+173.779,-001.171,-001.083,+00.3867,+00.0757,+00.0880,-00.274,-00.289,-09.987,-00.001074,-00.010863,-00.162713*62\r\n'"
1711483466.1556542,187,1711483466,155251502,imu1_frame,0,0,0,imu1_frame,0.009828007925604633,-0.010010059591530292,0.9983140265114113,0.05632329391789208,"(0.0, 0.0, 0.0, 0.0, 0.0, 0.0, 0.0, 0.0, 0.0)",-0.00523,-0.009288,-0.161142,"(0.0, 0.0, 0.0, 0.0, 0.0, 0.0, 0.0, 0.0, 0.0)",-0.256,-0.219,-9.952,"(0.0, 0.0, 0.0, 0.0, 0.0, 0.0, 0.0, 0.0, 0.0)",0,0,0,imu1_frame,3.8679999999999996e-05,7.93e-06,8.930000000000001e-06,"(0.0, 0.0, 0.0, 0.0, 0.0, 0.0, 0.0, 0.0, 0.0)","b'$VNYMR,+173.553,-001.189,-001.082,+00.3868,+00.0793,+00.0893,-00.256,-00.219,-09.952,-00.005230,-00.009288,-00.161142*6A\r\n'"
1711483466.179481,188,1711483466,179238557,imu1_frame,0,0,0,imu1_frame,0.009951424067463036,-0.010124977406497513,0.9981995113728506,0.05827683490504505,"(0.0, 0.0, 0.0, 0.0, 0.0, 0.0, 0.0, 0.0, 0.0)",-0.014462,-0.00895,-0.157877,"(0.0, 0.0, 0.0, 0.0, 0.0, 0.0, 0.0, 0.0, 0.0)",-0.19,-0.277,-9.905,"(0.0, 0.0, 0.0, 0.0, 0.0, 0.0, 0.0, 0.0, 0.0)",0,0,0,imu1_frame,3.891e-05,8.16e-06,8.939999999999999e-06,"(0.0, 0.0, 0.0, 0.0, 0.0, 0.0, 0.0, 0.0, 0.0)","b'$VNYMR,+173.329,-001.206,-001.092,+00.3891,+00.0816,+00.0894,-00.190,-00.277,-09.905,-00.014462,-00.008950,-00.157877*60\r\n'"
1711483466.2035778,189,1711483466,203275918,imu1_frame,0,0,0,imu1_frame,0.010059155497340447,-0.010352856512333052,0.9980816487395522,0.06020510112982266,"(0.0, 0.0, 0.0, 0.0, 0.0, 0.0, 0.0, 0.0, 0.0)",-0.020946,-0.006205,-0.157648,"(0.0, 0.0, 0.0, 0.0, 0.0, 0.0, 0.0, 0.0, 0.0)",-0.275,-0.254,-9.827,"(0.0, 0.0, 0.0, 0.0, 0.0, 0.0, 0.0, 0.0, 0.0)",0,0,0,imu1_frame,3.9040000000000006e-05,8.88e-06,8.15e-06,"(0.0, 0.0, 0.0, 0.0, 0.0, 0.0, 0.0, 0.0, 0.0)","b'$VNYMR,+173.108,-001.222,-001.115,+00.3904,+00.0888,+00.0815,-00.275,-00.254,-09.827,-00.020946,-00.006205,-00.157648*69\r\n'"
1711483466.2295434,190,1711483466,229264497,imu1_frame,0,0,0,imu1_frame,0.01015381750930813,-0.010641342514871964,0.997961075632388,0.062107594882719004,"(0.0, 0.0, 0.0, 0.0, 0.0, 0.0, 0.0, 0.0, 0.0)",-0.024613,-0.00672,-0.152917,"(0.0, 0.0, 0.0, 0.0, 0.0, 0.0, 0.0, 0.0, 0.0)",-0.223,-0.263,-9.768,"(0.0, 0.0, 0.0, 0.0, 0.0, 0.0, 0.0, 0.0, 0.0)",0,0,0,imu1_frame,3.903e-05,7.68e-06,8.69e-06,"(0.0, 0.0, 0.0, 0.0, 0.0, 0.0, 0.0, 0.0, 0.0)","b'$VNYMR,+172.890,-001.237,-001.145,+00.3903,+00.0768,+00.0869,-00.223,-00.263,-09.768,-00.024613,-00.006720,-00.152917*66\r\n'"
1711483466.2535717,191,1711483466,253087043,imu1_frame,0,0,0,imu1_frame,0.010206016185243713,-0.010892698239621,0.99783711182322,0.06401784616012988,"(0.0, 0.0, 0.0, 0.0, 0.0, 0.0, 0.0, 0.0, 0.0)",-0.018717,-0.002632,-0.156682,"(0.0, 0.0, 0.0, 0.0, 0.0, 0.0, 0.0, 0.0, 0.0)",-0.246,-0.275,-9.647,"(0.0, 0.0, 0.0, 0.0, 0.0, 0.0, 0.0, 0.0, 0.0)",0,0,0,imu1_frame,3.938e-05,7.91e-06,8.83e-06,"(0.0, 0.0, 0.0, 0.0, 0.0, 0.0, 0.0, 0.0, 0.0)","b'$VNYMR,+172.671,-001.247,-001.171,+00.3938,+00.0791,+00.0883,-00.246,-00.275,-09.647,-00.018717,-00.002632,-00.156682*6E\r\n'"
1711483466.2800727,192,1711483466,279584884,imu1_frame,0,0,0,imu1_frame,0.010210130562392282,-0.01106257948449522,0.9977103342261764,0.06593528302312367,"(0.0, 0.0, 0.0, 0.0, 0.0, 0.0, 0.0, 0.0, 0.0)",-0.013371,0.002837,-0.156146,"(0.0, 0.0, 0.0, 0.0, 0.0, 0.0, 0.0, 0.0, 0.0)",-0.217,-0.321,-9.47,"(0.0, 0.0, 0.0, 0.0, 0.0, 0.0, 0.0, 0.0, 0.0)",0,0,0,imu1_frame,3.938e-05,8.87e-06,8.56e-06,"(0.0, 0.0, 0.0, 0.0, 0.0, 0.0, 0.0, 0.0, 0.0)","b'$VNYMR,+172.451,-001.251,-001.188,+00.3938,+00.0887,+00.0856,-00.217,-00.321,-09.470,-00.013371,+00.002837,-00.156146*60\r\n'"
1711483466.3035722,193,1711483466,302845001,imu1_frame,0,0,0,imu1_frame,0.010155553155589248,-0.011184945839881869,0.9975804541471227,0.06786014463794673,"(0.0, 0.0, 0.0, 0.0, 0.0, 0.0, 0.0, 0.0, 0.0)",-0.011973,0.006494,-0.157502,"(0.0, 0.0, 0.0, 0.0, 0.0, 0.0, 0.0, 0.0, 0.0)",-0.288,-0.203,-9.439,"(0.0, 0.0, 0.0, 0.0, 0.0, 0.0, 0.0, 0.0, 0.0)",0,0,0,imu1_frame,3.938e-05,7.79e-06,8.44e-06,"(0.0, 0.0, 0.0, 0.0, 0.0, 0.0, 0.0, 0.0, 0.0)","b'$VNYMR,+172.230,-001.248,-001.200,+00.3938,+00.0779,+00.0844,-00.288,-00.203,-09.439,-00.011973,+00.006494,-00.157502*63\r\n'"
1711483466.3295095,194,1711483466,328601598,imu1_frame,0,0,0,imu1_frame,0.01008639384580637,-0.011254054271938891,0.9974452051776429,0.06981886270744785,"(0.0, 0.0, 0.0, 0.0, 0.0, 0.0, 0.0, 0.0, 0.0)",-0.006246,0.009636,-0.159561,"(0.0, 0.0, 0.0, 0.0, 0.0, 0.0, 0.0, 0.0, 0.0)",-0.227,-0.076,-9.466,"(0.0, 0.0, 0.0, 0.0, 0.0, 0.0, 0.0, 0.0, 0.0)",0,0,0,imu1_frame,3.9489999999999996e-05,8.02e-06,8.83e-06,"(0.0, 0.0, 0.0, 0.0, 0.0, 0.0, 0.0, 0.0, 0.0)","b'$VNYMR,+172.005,-001.243,-001.206,+00.3949,+00.0802,+00.0883,-00.227,-00.076,-09.466,-00.006246,+00.009636,-00.159561*6E\r\n'"
1711483466.3535316,195,1711483466,352683305,imu1_frame,0,0,0,imu1_frame,0.009969069112496343,-0.011258352692623546,0.9973067717085884,0.07178488879891536,"(0.0, 0.0, 0.0, 0.0, 0.0, 0.0, 0.0, 0.0, 0.0)",-0.0004,0.011712,-0.159311,"(0.0, 0.0, 0.0, 0.0, 0.0, 0.0, 0.0, 0.0, 0.0)",-0.277,-0.064,-9.643,"(0.0, 0.0, 0.0, 0.0, 0.0, 0.0, 0.0, 0.0, 0.0)",0,0,0,imu1_frame,3.926e-05,8.03e-06,9.35e-06,"(0.0, 0.0, 0.0, 0.0, 0.0, 0.0, 0.0, 0.0, 0.0)","b'$VNYMR,+171.779,-001.232,-001.205,+00.3926,+00.0803,+00.0935,-00.277,-00.064,-09.643,-00.000400,+00.011712,-00.159311*6E\r\n'"
1711483466.3799071,196,1711483466,378814935,imu1_frame,0,0,0,imu1_frame,0.009831453090402915,-0.011181989927186034,0.9971656330905263,0.07374961569099418,"(0.0, 0.0, 0.0, 0.0, 0.0, 0.0, 0.0, 0.0, 0.0)",0.00533,0.014607,-0.15945,"(0.0, 0.0, 0.0, 0.0, 0.0, 0.0, 0.0, 0.0, 0.0)",-0.289,-0.008,-9.735,"(0.0, 0.0, 0.0, 0.0, 0.0, 0.0, 0.0, 0.0, 0.0)",0,0,0,imu1_frame,3.985e-05,8.609999999999999e-06,9.760000000000001e-06,"(0.0, 0.0, 0.0, 0.0, 0.0, 0.0, 0.0, 0.0, 0.0)","b'$VNYMR,+171.553,-001.218,-001.195,+00.3985,+00.0861,+00.0976,-00.289,-00.008,-09.735,+00.005330,+00.014607,-00.159450*62\r\n'"
1711483466.4114523,197,1711483466,410052061,imu1_frame,0,0,0,imu1_frame,0.009671378334544428,-0.011059648237453604,0.9970213777187167,0.07571341356619689,"(0.0, 0.0, 0.0, 0.0, 0.0, 0.0, 0.0, 0.0, 0.0)",0.004886,0.015759,-0.159961,"(0.0, 0.0, 0.0, 0.0, 0.0, 0.0, 0.0, 0.0, 0.0)",-0.243,-0.119,-9.709,"(0.0, 0.0, 0.0, 0.0, 0.0, 0.0, 0.0, 0.0, 0.0)",0,0,0,imu1_frame,3.973e-05,8.26e-06,9.63e-06,"(0.0, 0.0, 0.0, 0.0, 0.0, 0.0, 0.0, 0.0, 0.0)","b'$VNYMR,+171.327,-001.201,-001.180,+00.3973,+00.0826,+00.0963,-00.243,-00.119,-09.709,+00.004886,+00.015759,-00.159961*6E\r\n'"
1711483466.4362757,198,1711483466,435363769,imu1_frame,0,0,0,imu1_frame,0.009501186761827249,-0.010962057450397805,0.9968737007627748,0.07766843293192455,"(0.0, 0.0, 0.0, 0.0, 0.0, 0.0, 0.0, 0.0, 0.0)",0.002371,0.016201,-0.159111,"(0.0, 0.0, 0.0, 0.0, 0.0, 0.0, 0.0, 0.0, 0.0)",-0.266,-0.13,-9.887,"(0.0, 0.0, 0.0, 0.0, 0.0, 0.0, 0.0, 0.0, 0.0)",0,0,0,imu1_frame,3.973e-05,7.9e-06,9.760000000000001e-06,"(0.0, 0.0, 0.0, 0.0, 0.0, 0.0, 0.0, 0.0, 0.0)","b'$VNYMR,+171.102,-001.183,-001.168,+00.3973,+00.0790,+00.0976,-00.266,-00.130,-09.887,+00.002371,+00.016201,-00.159111*66\r\n'"
1711483466.5092728,199,1711483466,507203817,imu1_frame,0,0,0,imu1_frame,0.009312914416159654,-0.0108796068114126,0.9967242373177313,0.07959710122920914,"(0.0, 0.0, 0.0, 0.0, 0.0, 0.0, 0.0, 0.0, 0.0)",0.002298,0.018068,-0.155901,"(0.0, 0.0, 0.0, 0.0, 0.0, 0.0, 0.0, 0.0, 0.0)",-0.346,-0.178,-9.923,"(0.0, 0.0, 0.0, 0.0, 0.0, 0.0, 0.0, 0.0, 0.0)",0,0,0,imu1_frame,4.0079999999999996e-05,8.609999999999999e-06,9.38e-06,"(0.0, 0.0, 0.0, 0.0, 0.0, 0.0, 0.0, 0.0, 0.0)","b'$VNYMR,+170.880,-001.163,-001.158,+00.4008,+00.0861,+00.0938,-00.346,-00.178,-09.923,+00.002298,+00.018068,-00.155901*60\r\n'"
1711483466.5313578,200,1711483466,529882907,imu1_frame,0,0,0,imu1_frame,0.009140445487627488,-0.010823817500530441,0.9965719538469311,0.08150851511782832,"(0.0, 0.0, 0.0, 0.0, 0.0, 0.0, 0.0, 0.0, 0.0)",-0.000391,0.016344,-0.156621,"(0.0, 0.0, 0.0, 0.0, 0.0, 0.0, 0.0, 0.0, 0.0)",-0.347,-0.259,-9.946,"(0.0, 0.0, 0.0, 0.0, 0.0, 0.0, 0.0, 0.0, 0.0)",0,0,0,imu1_frame,4.0079999999999996e-05,8.72e-06,1.029e-05,"(0.0, 0.0, 0.0, 0.0, 0.0, 0.0, 0.0, 0.0, 0.0)","b'$VNYMR,+170.660,-001.145,-001.151,+00.4008,+00.0872,+00.1029,-00.347,-00.259,-09.946,-00.000391,+00.016344,-00.156621*64\r\n'"
1711483466.5800557,201,1711483466,556637287,imu1_frame,0,0,0,imu1_frame,0.00895617284338532,-0.010809921921636404,0.9964177805620131,0.08339387948716302,"(0.0, 0.0, 0.0, 0.0, 0.0, 0.0, 0.0, 0.0, 0.0)",-0.00348,0.017202,-0.155103,"(0.0, 0.0, 0.0, 0.0, 0.0, 0.0, 0.0, 0.0, 0.0)",-0.401,-0.292,-10.067,"(0.0, 0.0, 0.0, 0.0, 0.0, 0.0, 0.0, 0.0, 0.0)",0,0,0,imu1_frame,3.998e-05,1.017e-05,9.75e-06,"(0.0, 0.0, 0.0, 0.0, 0.0, 0.0, 0.0, 0.0, 0.0)","b'$VNYMR,+170.443,-001.126,-001.149,+00.3998,+00.1017,+00.0975,-00.401,-00.292,-10.067,-00.003480,+00.017202,-00.155103*65\r\n'"
1711483466.6572118,202,1711483466,656104803,imu1_frame,0,0,0,imu1_frame,0.008130550154850435,-0.012568633042378092,0.9955917617702257,0.0925903208379994,"(0.0, 0.0, 0.0, 0.0, 0.0, 0.0, 0.0, 0.0, 0.0)",-0.04491,0.003614,-0.149469,"(0.0, 0.0, 0.0, 0.0, 0.0, 0.0, 0.0, 0.0, 0.0)",-0.267,-0.321,-9.253,"(0.0, 0.0, 0.0, 0.0, 0.0, 0.0, 0.0, 0.0, 0.0)",0,0,0,imu1_frame,4.02e-05,9.2e-06,1.043e-05,"(0.0, 0.0, 0.0, 0.0, 0.0, 0.0, 0.0, 0.0, 0.0)","b'$VNYMR,+169.386,-001.061,-001.348,+00.4020,+00.0920,+00.1043,-00.267,-00.321,-09.253,-00.044910,+00.003614,-00.149469*69\r\n'"
1711483466.6762514,203,1711483466,674526453,imu1_frame,0,0,0,imu1_frame,0.0080976438457411,-0.013055949954367464,0.9954131824629329,0.09442757284793733,"(0.0, 0.0, 0.0, 0.0, 0.0, 0.0, 0.0, 0.0, 0.0)",-0.037941,-0.001764,-0.149027,"(0.0, 0.0, 0.0, 0.0, 0.0, 0.0, 0.0, 0.0, 0.0)",-0.253,-0.107,-9.296,"(0.0, 0.0, 0.0, 0.0, 0.0, 0.0, 0.0, 0.0, 0.0)",0,0,0,imu1_frame,4.031e-05,8.48e-06,1.004e-05,"(0.0, 0.0, 0.0, 0.0, 0.0, 0.0, 0.0, 0.0, 0.0)","b'$VNYMR,+169.175,-001.065,-001.402,+00.4031,+00.0848,+00.1004,-00.253,-00.107,-09.296,-00.037941,-00.001764,-00.149027*62\r\n'"
1711483466.6822844,204,1711483466,681937456,imu1_frame,0,0,0,imu1_frame,0.008121632509000908,-0.01339097197077682,0.9952334837607012,0.0962550453566181,"(0.0, 0.0, 0.0, 0.0, 0.0, 0.0, 0.0, 0.0, 0.0)",-0.025391,-0.002558,-0.148772,"(0.0, 0.0, 0.0, 0.0, 0.0, 0.0, 0.0, 0.0, 0.0)",-0.304,0.038,-9.417,"(0.0, 0.0, 0.0, 0.0, 0.0, 0.0, 0.0, 0.0, 0.0)",0,0,0,imu1_frame,3.9739999999999996e-05,9.460000000000001e-06,8.17e-06,"(0.0, 0.0, 0.0, 0.0, 0.0, 0.0, 0.0, 0.0, 0.0)","b'$VNYMR,+168.965,-001.074,-001.438,+00.3974,+00.0946,+00.0817,-00.304,+00.038,-09.417,-00.025391,-00.002558,-00.148772*63\r\n'"
1711483466.703732,205,1711483466,703253507,imu1_frame,0,0,0,imu1_frame,0.008167297732610488,-0.013579571572649943,0.9950496851541701,0.09810715854736171,"(0.0, 0.0, 0.0, 0.0, 0.0, 0.0, 0.0, 0.0, 0.0)",-0.013756,-0.000349,-0.150143,"(0.0, 0.0, 0.0, 0.0, 0.0, 0.0, 0.0, 0.0, 0.0)",-0.331,0.203,-9.533,"(0.0, 0.0, 0.0, 0.0, 0.0, 0.0, 0.0, 0.0, 0.0)",0,0,0,imu1_frame,4.009e-05,8.97e-06,7.01e-06,"(0.0, 0.0, 0.0, 0.0, 0.0, 0.0, 0.0, 0.0, 0.0)","b'$VNYMR,+168.752,-001.084,-001.457,+00.4009,+00.0897,+00.0701,-00.331,+00.203,-09.533,-00.013756,-00.000349,-00.150143*66\r\n'"
