Timestamp,Yaw,Pitch,Roll,Angular Velocity X,Angular Velocity Y,Angular Velocity Z,Linear Acceleration X,Linear Acceleration Y,Linear Acceleration Z,Magnetic Field X,Magnetic Field Y,Magnetic Field Z,Original String
1712237211.8390124,-145.312,+087.652,-174.603,-00.2166,+00.2491,-00.5778,+09.825,-00.063,-00.049,-00.005592,-00.016206,+00.074278,"$VNYMR,-145.312,+087.652,-174.603,-00.2166,+00.2491,-00.5778,+09.825,-00.063,-00.049,-00.005592,-00.016206,+00.074278*6F
"
1712237211.866318,-147.801,+087.678,-177.100,-00.2157,+00.2361,-00.5709,+09.635,-00.225,-00.210,-00.008487,-00.003754,+00.066639,"$VNYMR,-147.801,+087.678,-177.100,-00.2157,+00.2361,-00.5709,+09.635,-00.225,-00.210,-00.008487,-00.003754,+00.066639*6A
"
1712237211.8887358,-149.916,+087.664,-179.224,-00.2135,+00.2360,-00.5601,+09.589,-00.300,-00.334,-00.007207,+00.019694,+00.050890,"$VNYMR,-149.916,+087.664,-179.224,-00.2135,+00.2360,-00.5601,+09.589,-00.300,-00.334,-00.007207,+00.019694,+00.050890*65
"
1712237211.916598,-151.344,+087.613,+179.337,-00.2134,+00.2396,-00.5735,+09.557,-00.226,-00.246,-00.009004,+00.048240,+00.033744,"$VNYMR,-151.344,+087.613,+179.337,-00.2134,+00.2396,-00.5735,+09.557,-00.226,-00.246,-00.009004,+00.048240,+00.033744*6D
"
1712237211.9443703,-152.235,+087.532,+178.434,-00.2157,+00.2373,-00.5656,+09.755,-00.108,-00.123,-00.009210,+00.063495,+00.023648,"$VNYMR,-152.235,+087.532,+178.434,-00.2157,+00.2373,-00.5656,+09.755,-00.108,-00.123,-00.009210,+00.063495,+00.023648*65
"
1712237211.964846,-152.957,+087.437,+177.700,-00.2166,+00.2479,-00.5671,+09.890,+00.110,+00.121,-00.009967,+00.066640,+00.026322,"$VNYMR,-152.957,+087.437,+177.700,-00.2166,+00.2479,-00.5671,+09.890,+00.110,+00.121,-00.009967,+00.066640,+00.026322*6A
"
1712237211.9908442,-153.943,+087.351,+176.701,-00.2132,+00.2502,-00.5723,+09.963,+00.217,+00.377,-00.009775,+00.051624,+00.040960,"$VNYMR,-153.943,+087.351,+176.701,-00.2132,+00.2502,-00.5723,+09.963,+00.217,+00.377,-00.009775,+00.051624,+00.040960*6C
"
1712237212.0140874,-155.419,+087.290,+175.214,-00.2145,+00.2396,-00.5749,+10.025,+00.256,+00.531,-00.007796,+00.024408,+00.058882,"$VNYMR,-155.419,+087.290,+175.214,-00.2145,+00.2396,-00.5749,+10.025,+00.256,+00.531,-00.007796,+00.024408,+00.058882*6A
"
1712237212.0390284,-157.486,+087.279,+173.138,-00.2168,+00.2361,-00.5656,+10.078,+00.154,+00.610,-00.006900,-00.014104,+00.075561,"$VNYMR,-157.486,+087.279,+173.138,-00.2168,+00.2361,-00.5656,+10.078,+00.154,+00.610,-00.006900,-00.014104,+00.075561*60
"
1712237212.0642695,-159.978,+087.310,+170.641,-00.2156,+00.2444,-00.5763,+10.045,-00.037,+00.581,-00.004105,-00.048158,+00.078852,"$VNYMR,-159.978,+087.310,+170.641,-00.2156,+00.2444,-00.5763,+10.045,-00.037,+00.581,-00.004105,-00.048158,+00.078852*64
"
1712237212.0911045,-162.662,+087.381,+167.957,-00.2145,+00.2408,-00.5669,+09.928,-00.212,+00.364,-00.001786,-00.076823,+00.071738,"$VNYMR,-162.662,+087.381,+167.957,-00.2145,+00.2408,-00.5669,+09.928,-00.212,+00.364,-00.001786,-00.076823,+00.071738*67
"
1712237212.1140687,-165.210,+087.479,+165.413,-00.2154,+00.2514,-00.5684,+09.868,-00.356,+00.163,+00.001251,-00.087466,+00.051829,"$VNYMR,-165.210,+087.479,+165.413,-00.2154,+00.2514,-00.5684,+09.868,-00.356,+00.163,+00.001251,-00.087466,+00.051829*67
"
1712237212.1387906,-167.259,+087.588,+163.369,-00.2143,+00.2502,-00.5724,+09.724,-00.327,-00.091,+00.002979,-00.084690,+00.028062,"$VNYMR,-167.259,+087.588,+163.369,-00.2143,+00.2502,-00.5724,+09.724,-00.327,-00.091,+00.002979,-00.084690,+00.028062*69
"
1712237212.1640942,-168.712,+087.688,+161.923,-00.2145,+00.2420,-00.5723,+09.624,-00.219,-00.202,+00.003210,-00.072798,+00.012800,"$VNYMR,-168.712,+087.688,+161.923,-00.2145,+00.2420,-00.5723,+09.624,-00.219,-00.202,+00.003210,-00.072798,+00.012800*6C
"
1712237212.1890564,-169.692,+087.765,+160.947,-00.2165,+00.2503,-00.5591,+09.635,-00.020,-00.262,+00.001877,-00.049156,+00.006930,"$VNYMR,-169.692,+087.765,+160.947,-00.2165,+00.2503,-00.5591,+09.635,-00.020,-00.262,+00.001877,-00.049156,+00.006930*60
"
1712237212.2140946,-170.579,+087.811,+160.062,-00.2155,+00.2479,-00.5710,+09.658,+00.186,-00.188,-00.000331,-00.028120,+00.017265,"$VNYMR,-170.579,+087.811,+160.062,-00.2155,+00.2479,-00.5710,+09.658,+00.186,-00.188,-00.000331,-00.028120,+00.017265*6C
"
1712237212.241165,-171.879,+087.826,+158.760,-00.2176,+00.2527,-00.5672,+09.791,+00.282,-00.006,-00.003795,-00.016443,+00.037229,"$VNYMR,-171.879,+087.826,+158.760,-00.2176,+00.2527,-00.5672,+09.791,+00.282,-00.006,-00.003795,-00.016443,+00.037229*6E
"
1712237212.2668145,-173.889,+087.823,+156.744,-00.2176,+00.2550,-00.5659,+09.871,+00.262,+00.141,-00.004706,-00.019801,+00.058554,"$VNYMR,-173.889,+087.823,+156.744,-00.2176,+00.2550,-00.5659,+09.871,+00.262,+00.141,-00.004706,-00.019801,+00.058554*60
"
1712237212.2890382,-176.576,+087.813,+154.052,-00.2143,+00.2526,-00.5710,+09.946,+00.054,+00.328,-00.005249,-00.030224,+00.072512,"$VNYMR,-176.576,+087.813,+154.052,-00.2143,+00.2526,-00.5710,+09.946,+00.054,+00.328,-00.005249,-00.030224,+00.072512*6E
"
1712237212.3140266,-179.745,+087.824,+150.880,-00.2143,+00.2538,-00.5711,+10.040,-00.183,+00.444,-00.001756,-00.055381,+00.069999,"$VNYMR,-179.745,+087.824,+150.880,-00.2143,+00.2538,-00.5711,+10.040,-00.183,+00.444,-00.001756,-00.055381,+00.069999*6A
"
1712237212.338895,+176.879,+087.870,+147.507,-00.2156,+00.2432,-00.5617,+09.936,-00.356,+00.483,+00.001421,-00.082172,+00.051806,"$VNYMR,+176.879,+087.870,+147.507,-00.2156,+00.2432,-00.5617,+09.936,-00.356,+00.483,+00.001421,-00.082172,+00.051806*62
"
1712237212.3672106,+173.572,+087.958,+144.210,-00.2145,+00.2431,-00.5643,+09.982,-00.469,+00.415,+00.006519,-00.107726,+00.022035,"$VNYMR,+173.572,+087.958,+144.210,-00.2145,+00.2431,-00.5643,+09.982,-00.469,+00.415,+00.006519,-00.107726,+00.022035*69
"
1712237212.390621,+170.349,+088.092,+141.003,-00.2188,+00.2480,-00.5592,+09.837,-00.358,+00.323,+00.011547,-00.127386,-00.005752,"$VNYMR,+170.349,+088.092,+141.003,-00.2188,+00.2480,-00.5592,+09.837,-00.358,+00.323,+00.011547,-00.127386,-00.005752*69
"
1712237212.4138303,+167.035,+088.254,+137.708,-00.2164,+00.2586,-00.5592,+09.930,-00.200,+00.132,+00.011937,-00.136580,-00.023085,"$VNYMR,+167.035,+088.254,+137.708,-00.2164,+00.2586,-00.5592,+09.930,-00.200,+00.132,+00.011937,-00.136580,-00.023085*6D
"
1712237212.443941,+163.144,+088.420,+133.839,-00.2197,+00.2586,-00.5687,+09.716,+00.083,-00.019,+00.012530,-00.132383,-00.022691,"$VNYMR,+163.144,+088.420,+133.839,-00.2197,+00.2586,-00.5687,+09.716,+00.083,-00.019,+00.012530,-00.132383,-00.022691*69
"
1712237212.4666853,+158.465,+088.559,+129.177,-00.2166,+00.2467,-00.5618,+09.769,+00.253,-00.182,+00.009487,-00.119363,-00.007140,"$VNYMR,+158.465,+088.559,+129.177,-00.2166,+00.2467,-00.5618,+09.769,+00.253,-00.182,+00.009487,-00.119363,-00.007140*6E
"
1712237212.4887595,+153.106,+088.646,+123.831,-00.2222,+00.2457,-00.5527,+09.607,+00.294,-00.241,+00.005472,-00.102612,+00.017005,"$VNYMR,+153.106,+088.646,+123.831,-00.2222,+00.2457,-00.5527,+09.607,+00.294,-00.241,+00.005472,-00.102612,+00.017005*60
"
1712237212.5172057,+147.522,+088.676,+118.253,-00.2177,+00.2468,-00.5605,+09.722,+00.141,-00.287,+00.002876,-00.081503,+00.038314,"$VNYMR,+147.522,+088.676,+118.253,-00.2177,+00.2468,-00.5605,+09.722,+00.141,-00.287,+00.002876,-00.081503,+00.038314*61
"
1712237212.5391328,+142.535,+088.668,+113.268,-00.2197,+00.2610,-00.5514,+09.719,-00.070,-00.145,-00.001131,-00.063577,+00.043277,"$VNYMR,+142.535,+088.668,+113.268,-00.2197,+00.2610,-00.5514,+09.719,-00.070,-00.145,-00.001131,-00.063577,+00.043277*66
"
1712237212.5641418,+138.518,+088.647,+109.252,-00.2196,+00.2657,-00.5568,+09.811,-00.314,-00.009,-00.000493,-00.052246,+00.031671,"$VNYMR,+138.518,+088.647,+109.252,-00.2196,+00.2657,-00.5568,+09.811,-00.314,-00.009,-00.000493,-00.052246,+00.031671*61
"
1712237212.5889258,+135.080,+088.646,+105.815,-00.2187,+00.2539,-00.5593,+09.809,-00.424,+00.161,+00.001854,-00.054316,+00.007880,"$VNYMR,+135.080,+088.646,+105.815,-00.2187,+00.2539,-00.5593,+09.809,-00.424,+00.161,+00.001854,-00.054316,+00.007880*60
"
1712237212.6137984,+131.370,+088.681,+102.112,-00.2187,+00.2539,-00.5593,+09.954,-00.373,+00.289,+00.005535,-00.068785,-00.019938,"$VNYMR,+131.370,+088.681,+102.112,-00.2187,+00.2539,-00.5593,+09.954,-00.373,+00.289,+00.005535,-00.068785,-00.019938*67
"
1712237212.6431987,+126.556,+088.749,+097.311,-00.2209,+00.2527,-00.5514,+09.968,-00.203,+00.445,+00.009613,-00.088720,-00.041106,"$VNYMR,+126.556,+088.749,+097.311,-00.2209,+00.2527,-00.5514,+09.968,-00.203,+00.445,+00.009613,-00.088720,-00.041106*62
"
1712237212.6641421,+119.668,+088.825,+090.440,-00.2198,+00.2551,-00.5513,+09.994,-00.031,+00.450,+00.012233,-00.114149,-00.047082,"$VNYMR,+119.668,+088.825,+090.440,-00.2198,+00.2551,-00.5513,+09.994,-00.031,+00.450,+00.012233,-00.114149,-00.047082*62
"
1712237212.6889703,+110.308,+088.877,+081.099,-00.2222,+00.2468,-00.5447,+09.936,+00.146,+00.323,+00.012137,-00.135696,-00.039556,"$VNYMR,+110.308,+088.877,+081.099,-00.2222,+00.2468,-00.5447,+09.936,+00.146,+00.323,+00.012137,-00.135696,-00.039556*6E
"
1712237212.713837,+099.559,+088.873,+070.368,-00.2208,+00.2574,-00.5434,+09.826,+00.190,+00.093,+00.011632,-00.145605,-00.026670,"$VNYMR,+099.559,+088.873,+070.368,-00.2208,+00.2574,-00.5434,+09.826,+00.190,+00.093,+00.011632,-00.145605,-00.026670*6D
"
1712237212.7389758,+089.813,+088.812,+060.638,-00.2220,+00.2563,-00.5515,+09.733,+00.130,-00.152,+00.008561,-00.140266,-00.011586,"$VNYMR,+089.813,+088.812,+060.638,-00.2220,+00.2563,-00.5515,+09.733,+00.130,-00.152,+00.008561,-00.140266,-00.011586*6B
"
1712237212.7639887,+082.481,+088.721,+053.317,-00.2222,+00.2445,-00.5447,+09.644,-00.014,-00.261,+00.003538,-00.128492,-00.005747,"$VNYMR,+082.481,+088.721,+053.317,-00.2222,+00.2445,-00.5447,+09.644,-00.014,-00.261,+00.003538,-00.128492,-00.005747*6C
"
1712237212.7891927,+077.213,+088.635,+048.058,-00.2244,+00.2445,-00.5328,+09.560,-00.204,-00.471,+00.002401,-00.089944,-00.009103,"$VNYMR,+077.213,+088.635,+048.058,-00.2244,+00.2445,-00.5328,+09.560,-00.204,-00.471,+00.002401,-00.089944,-00.009103*6E
"
1712237212.8139787,+073.665,+088.588,+044.513,-00.2255,+00.2481,-00.5449,+09.544,-00.286,-00.400,+00.000505,-00.051804,-00.024061,"$VNYMR,+073.665,+088.588,+044.513,-00.2255,+00.2481,-00.5449,+09.544,-00.286,-00.400,+00.000505,-00.051804,-00.024061*63
"
1712237212.8430839,+070.906,+088.588,+041.752,-00.2233,+00.2433,-00.5367,+09.653,-00.283,-00.256,-00.001627,-00.021527,-00.042568,"$VNYMR,+070.906,+088.588,+041.752,-00.2233,+00.2433,-00.5367,+09.653,-00.283,-00.256,-00.001627,-00.021527,-00.042568*6C
"
1712237212.8665938,+068.182,+088.621,+039.026,-00.2242,+00.2551,-00.5409,+09.778,-00.145,-00.009,-00.002079,-00.012125,-00.053654,"$VNYMR,+068.182,+088.621,+039.026,-00.2242,+00.2551,-00.5409,+09.778,-00.145,-00.009,-00.002079,-00.012125,-00.053654*6B
"
1712237212.892341,+064.914,+088.653,+035.756,-00.2254,+00.2540,-00.5423,+09.879,+00.004,+00.249,-00.002583,-00.017243,-00.056548,"$VNYMR,+064.914,+088.653,+035.756,-00.2254,+00.2540,-00.5423,+09.879,+00.004,+00.249,-00.002583,-00.017243,-00.056548*67
"
1712237212.9140599,+061.404,+088.669,+032.245,-00.2267,+00.2422,-00.5395,+09.957,+00.110,+00.416,-00.001105,-00.031934,-00.049359,"$VNYMR,+061.404,+088.669,+032.245,-00.2267,+00.2422,-00.5395,+09.957,+00.110,+00.416,-00.001105,-00.031934,-00.049359*63
"
1712237212.9413288,+057.624,+088.644,+028.463,-00.2267,+00.2434,-00.5302,+09.952,+00.106,+00.457,-00.001518,-00.057844,-00.038086,"$VNYMR,+057.624,+088.644,+028.463,-00.2267,+00.2434,-00.5302,+09.952,+00.106,+00.457,-00.001518,-00.057844,-00.038086*67
"
1712237212.9657862,+053.850,+088.572,+024.691,-00.2256,+00.2410,-00.5395,+09.953,+00.009,+00.350,+00.000799,-00.082891,-00.030523,"$VNYMR,+053.850,+088.572,+024.691,-00.2256,+00.2410,-00.5395,+09.953,+00.009,+00.350,+00.000799,-00.082891,-00.030523*60
"
1712237212.9889944,+050.291,+088.473,+021.136,-00.2278,+00.2422,-00.5316,+09.864,-00.097,+00.168,+00.002273,-00.092896,-00.031724,"$VNYMR,+050.291,+088.473,+021.136,-00.2278,+00.2422,-00.5316,+09.864,-00.097,+00.168,+00.002273,-00.092896,-00.031724*61
"
1712237213.0172517,+046.886,+088.369,+017.735,-00.2298,+00.2529,-00.5318,+09.750,-00.217,-00.070,+00.001909,-00.090282,-00.041876,"$VNYMR,+046.886,+088.369,+017.735,-00.2298,+00.2529,-00.5318,+09.750,-00.217,-00.070,+00.001909,-00.090282,-00.041876*67
"
1712237213.0426788,+043.403,+088.282,+014.255,-00.2276,+00.2528,-00.5384,+09.595,-00.278,-00.337,+00.001077,-00.068624,-00.057201,"$VNYMR,+043.403,+088.282,+014.255,-00.2276,+00.2528,-00.5384,+09.595,-00.278,-00.337,+00.001077,-00.068624,-00.057201*63
"
1712237213.0680106,+039.851,+088.231,+010.705,-00.2278,+00.2398,-00.5409,+09.547,-00.205,-00.466,-00.001390,-00.038653,-00.071521,"$VNYMR,+039.851,+088.231,+010.705,-00.2278,+00.2398,-00.5409,+09.547,-00.205,-00.466,-00.001390,-00.038653,-00.071521*66
"
1712237213.0887764,+036.267,+088.225,+007.118,-00.2324,+00.2364,-00.5224,+09.552,-00.062,-00.415,-00.004367,-00.000537,-00.077890,"$VNYMR,+036.267,+088.225,+007.118,-00.2324,+00.2364,-00.5224,+09.552,-00.062,-00.415,-00.004367,-00.000537,-00.077890*68
"
1712237213.1176805,+032.916,+088.257,+003.757,-00.2290,+00.2351,-00.5342,+09.642,+00.146,-00.321,-00.009121,+00.028582,-00.070056,"$VNYMR,+032.916,+088.257,+003.757,-00.2290,+00.2351,-00.5342,+09.642,+00.146,-00.321,-00.009121,+00.028582,-00.070056*6D
"
1712237213.139752,+030.056,+088.318,+000.883,-00.2312,+00.2375,-00.5304,+09.744,+00.227,-00.103,-00.011958,+00.047878,-00.054423,"$VNYMR,+030.056,+088.318,+000.883,-00.2312,+00.2375,-00.5304,+09.744,+00.227,-00.103,-00.011958,+00.047878,-00.054423*6D
"
1712237213.1668637,+027.921,+088.391,-001.271,-00.2332,+00.2494,-00.5293,+09.835,+00.200,+00.080,-00.015667,+00.052413,-00.033752,"$VNYMR,+027.921,+088.391,-001.271,-00.2332,+00.2494,-00.5293,+09.835,+00.200,+00.080,-00.015667,+00.052413,-00.033752*60
"
1712237213.1924388,+026.450,+088.466,-002.764,-00.2310,+00.2494,-00.5398,+09.864,+00.091,+00.257,-00.016012,+00.045054,-00.021247,"$VNYMR,+026.450,+088.466,-002.764,-00.2310,+00.2494,-00.5398,+09.864,+00.091,+00.257,-00.016012,+00.045054,-00.021247*6F
"
1712237213.2148747,+025.240,+088.519,-003.995,-00.2324,+00.2340,-00.5371,+09.905,-00.109,+00.287,-00.014059,+00.030580,-00.019917,"$VNYMR,+025.240,+088.519,-003.995,-00.2324,+00.2340,-00.5371,+09.905,-00.109,+00.287,-00.014059,+00.030580,-00.019917*66
"
1712237213.2388759,+023.562,+088.543,-005.690,-00.2324,+00.2340,-00.5264,+09.891,-00.261,+00.324,-00.010825,+00.011423,-00.034437,"$VNYMR,+023.562,+088.543,-005.690,-00.2324,+00.2340,-00.5264,+09.891,-00.261,+00.324,-00.010825,+00.011423,-00.034437*64
"
1712237213.2651422,+020.933,+088.544,-008.331,-00.2313,+00.2340,-00.5410,+09.849,-00.349,+00.233,-00.007774,-00.001844,-00.054717,"$VNYMR,+020.933,+088.544,-008.331,-00.2313,+00.2340,-00.5410,+09.849,-00.349,+00.233,-00.007774,-00.001844,-00.054717*63
"
1712237213.2905927,+017.247,+088.526,-012.025,-00.2324,+00.2328,-00.5277,+09.768,-00.232,+00.087,-00.005799,-00.003886,-00.073480,"$VNYMR,+017.247,+088.526,-012.025,-00.2324,+00.2328,-00.5277,+09.768,-00.232,+00.087,-00.005799,-00.003886,-00.073480*62
"
1712237213.3173833,+012.964,+088.499,-016.314,-00.2344,+00.2471,-00.5320,+09.745,-00.039,-00.129,-00.005011,+00.003207,-00.082665,"$VNYMR,+012.964,+088.499,-016.314,-00.2344,+00.2471,-00.5320,+09.745,-00.039,-00.129,-00.005011,+00.003207,-00.082665*63
"
1712237213.3395674,+008.618,+088.481,-020.668,-00.2344,+00.2459,-00.5400,+09.659,+00.127,-00.214,-00.008346,+00.018428,-00.076486,"$VNYMR,+008.618,+088.481,-020.668,-00.2344,+00.2459,-00.5400,+09.659,+00.127,-00.214,-00.008346,+00.018428,-00.076486*61
"
1712237213.3671932,+004.691,+088.490,-024.608,-00.2324,+00.2317,-00.5397,+09.639,+00.275,-00.342,-00.012868,+00.042747,-00.056608,"$VNYMR,+004.691,+088.490,-024.608,-00.2324,+00.2317,-00.5397,+09.639,+00.275,-00.342,-00.012868,+00.042747,-00.056608*63
"
1712237213.3888872,+001.147,+088.541,-028.171,-00.2367,+00.2424,-00.5280,+09.638,+00.312,-00.368,-00.016273,+00.069361,-00.031739,"$VNYMR,+001.147,+088.541,-028.171,-00.2367,+00.2424,-00.5280,+09.638,+00.312,-00.368,-00.016273,+00.069361,-00.031739*63
"
1712237213.4150472,-002.248,+088.635,-031.592,-00.2336,+00.2305,-00.5384,+09.645,+00.210,-00.279,-00.019438,+00.093432,-00.009715,"$VNYMR,-002.248,+088.635,-031.592,-00.2336,+00.2305,-00.5384,+09.645,+00.210,-00.279,-00.019438,+00.093432,-00.009715*61
"
1712237213.4389796,-006.061,+088.761,-035.436,-00.2369,+00.2329,-00.5359,+09.728,+00.009,-00.149,-00.022908,+00.111493,+00.002711,"$VNYMR,-006.061,+088.761,-035.436,-00.2369,+00.2329,-00.5359,+09.728,+00.009,-00.149,-00.022908,+00.111493,+00.002711*6C
"
1712237213.4646192,-011.040,+088.891,-040.447,-00.2345,+00.2423,-00.5386,+09.801,-00.197,+00.085,-00.023190,+00.117581,-00.003643,"$VNYMR,-011.040,+088.891,-040.447,-00.2345,+00.2423,-00.5386,+09.801,-00.197,+00.085,-00.023190,+00.117581,-00.003643*62
"
1712237213.4896986,-018.138,+088.996,-047.574,-00.2313,+00.2352,-00.5464,+09.857,-00.438,+00.235,-00.019518,+00.112884,-00.026631,"$VNYMR,-018.138,+088.996,-047.574,-00.2313,+00.2352,-00.5464,+09.857,-00.438,+00.235,-00.019518,+00.112884,-00.026631*64
"
1712237213.514846,-027.338,+089.044,-056.797,-00.2333,+00.2423,-00.5452,+09.905,-00.274,+00.329,-00.014682,+00.100266,-00.051412,"$VNYMR,-027.338,+089.044,-056.797,-00.2333,+00.2423,-00.5452,+09.905,-00.274,+00.329,-00.014682,+00.100266,-00.051412*6B
"
1712237213.5396671,-036.150,+089.036,-065.626,-00.2369,+00.2294,-00.5399,+10.000,+00.059,+00.370,-00.012519,+00.079062,-00.055770,"$VNYMR,-036.150,+089.036,-065.626,-00.2369,+00.2294,-00.5399,+10.000,+00.059,+00.370,-00.012519,+00.079062,-00.055770*62
"
1712237213.5648017,-042.970,+089.005,-072.461,-00.2325,+00.2305,-00.5544,+09.960,+00.257,+00.337,-00.011369,+00.059992,-00.043074,"$VNYMR,-042.970,+089.005,-072.461,-00.2325,+00.2305,-00.5544,+09.960,+00.257,+00.337,-00.011369,+00.059992,-00.043074*61
"
1712237213.5925233,-047.829,+088.983,-077.336,-00.2358,+00.2305,-00.5439,+09.882,+00.306,+00.180,-00.013564,+00.048497,-00.021749,"$VNYMR,-047.829,+088.983,-077.336,-00.2358,+00.2305,-00.5439,+09.882,+00.306,+00.180,-00.013564,+00.048497,-00.021749*64
"
1712237213.6147304,-051.623,+088.983,-081.148,-00.2345,+00.2376,-00.5466,+09.762,+00.269,+00.006,-00.013874,+00.047250,+00.001039,"$VNYMR,-051.623,+088.983,-081.148,-00.2345,+00.2376,-00.5466,+09.762,+00.269,+00.006,-00.013874,+00.047250,+00.001039*6B
"
1712237213.639943,-056.000,+089.009,-085.547,-00.2335,+00.2352,-00.5531,+09.707,+00.121,-00.213,-00.017355,+00.058300,+00.017610,"$VNYMR,-056.000,+089.009,-085.547,-00.2335,+00.2352,-00.5531,+09.707,+00.121,-00.213,-00.017355,+00.058300,+00.017610*6C
"
1712237213.6679206,-062.198,+089.043,-091.770,-00.2291,+00.2304,-00.5489,+09.602,-00.086,-00.318,-00.019258,+00.083911,+00.020249,"$VNYMR,-062.198,+089.043,-091.770,-00.2291,+00.2304,-00.5489,+09.602,-00.086,-00.318,-00.019258,+00.083911,+00.020249*6E
"
1712237213.6900268,-070.763,+089.049,-100.362,-00.2347,+00.2293,-00.5425,+09.601,-00.343,-00.343,-00.020154,+00.108999,+00.006168,"$VNYMR,-070.763,+089.049,-100.362,-00.2347,+00.2293,-00.5425,+09.601,-00.343,-00.343,-00.020154,+00.108999,+00.006168*6C
"
1712237213.7149403,-080.949,+088.997,-110.575,-00.2325,+00.2269,-00.5503,+09.616,-00.289,-00.210,-00.018178,+00.133305,-00.011887,"$VNYMR,-080.949,+088.997,-110.575,-00.2325,+00.2269,-00.5503,+09.616,-00.289,-00.210,-00.018178,+00.133305,-00.011887*67
"
1712237213.7394786,-090.510,+088.890,-120.161,-00.2348,+00.2258,-00.5478,+09.814,+00.010,-00.052,-00.018609,+00.144989,-00.017903,"$VNYMR,-090.510,+088.890,-120.161,-00.2348,+00.2258,-00.5478,+09.814,+00.010,-00.052,-00.018609,+00.144989,-00.017903*6E
"
1712237213.7653046,-098.434,+088.756,-128.110,-00.2334,+00.2376,-00.5492,+09.839,+00.147,+00.185,-00.019510,+00.144850,-00.009238,"$VNYMR,-098.434,+088.756,-128.110,-00.2334,+00.2376,-00.5492,+09.839,+00.147,+00.185,-00.019510,+00.144850,-00.009238*6A
"
1712237213.7898982,-104.906,+088.627,-134.608,-00.2301,+00.2375,-00.5597,+09.970,+00.246,+00.380,-00.018635,+00.127733,+00.007455,"$VNYMR,-104.906,+088.627,-134.608,-00.2301,+00.2375,-00.5597,+09.970,+00.246,+00.380,-00.018635,+00.127733,+00.007455*61
"
1712237213.8148863,-110.224,+088.525,-139.950,-00.2314,+00.2269,-00.5609,+09.985,+00.250,+00.473,-00.018583,+00.104767,+00.028481,"$VNYMR,-110.224,+088.525,-139.950,-00.2314,+00.2269,-00.5609,+09.985,+00.250,+00.473,-00.018583,+00.104767,+00.028481*61
"
1712237213.8414352,-114.781,+088.457,-144.532,-00.2323,+00.2376,-00.5531,+10.001,+00.131,+00.447,-00.017704,+00.077232,+00.042818,"$VNYMR,-114.781,+088.457,-144.532,-00.2323,+00.2376,-00.5531,+10.001,+00.131,+00.447,-00.017704,+00.077232,+00.042818*66
"
1712237213.8677268,-118.628,+088.421,-148.400,-00.2281,+00.2292,-00.5675,+09.997,-00.022,+00.367,-00.015958,+00.052804,+00.048751,"$VNYMR,-118.628,+088.421,-148.400,-00.2281,+00.2292,-00.5675,+09.997,-00.022,+00.367,-00.015958,+00.052804,+00.048751*6F
"
1712237213.8919365,-121.870,+088.396,-151.659,-00.2290,+00.2375,-00.5596,+09.827,-00.227,+00.161,-00.011617,+00.041841,+00.040314,"$VNYMR,-121.870,+088.396,-151.659,-00.2290,+00.2375,-00.5596,+09.827,-00.227,+00.161,-00.011617,+00.041841,+00.040314*6A
"
1712237213.9145823,-124.259,+088.365,-154.064,-00.2311,+00.2446,-00.5585,+09.769,-00.284,-00.003,-00.011483,+00.043807,+00.023942,"$VNYMR,-124.259,+088.365,-154.064,-00.2311,+00.2446,-00.5585,+09.769,-00.284,-00.003,-00.011483,+00.043807,+00.023942*6E
"
1712237213.939725,-126.046,+088.313,-155.867,-00.2311,+00.2411,-00.5664,+09.693,-00.155,-00.128,-00.011316,+00.055986,+00.009735,"$VNYMR,-126.046,+088.313,-155.867,-00.2311,+00.2411,-00.5664,+09.693,-00.155,-00.128,-00.011316,+00.055986,+00.009735*64
"
1712237213.9677405,-127.671,+088.232,-157.507,-00.2247,+00.2315,-00.5633,+09.703,-00.041,-00.234,-00.011755,+00.072481,+00.006341,"$VNYMR,-127.671,+088.232,-157.507,-00.2247,+00.2315,-00.5633,+09.703,-00.041,-00.234,-00.011755,+00.072481,+00.006341*69
"
1712237213.9893982,-129.590,+088.127,-159.444,-00.2302,+00.2304,-00.5596,+09.692,+00.122,-00.163,-00.013024,+00.092846,+00.015452,"$VNYMR,-129.590,+088.127,-159.444,-00.2302,+00.2304,-00.5596,+09.692,+00.122,-00.163,-00.013024,+00.092846,+00.015452*6F
"
1712237214.017269,-132.009,+088.003,-161.883,-00.2257,+00.2363,-00.5674,+09.769,+00.237,-00.074,-00.016613,+00.105334,+00.031708,"$VNYMR,-132.009,+088.003,-161.883,-00.2257,+00.2363,-00.5674,+09.769,+00.237,-00.074,-00.016613,+00.105334,+00.031708*6D
"
1712237214.03987,-134.995,+087.873,-164.891,-00.2300,+00.2423,-00.5637,+09.825,+00.249,+00.100,-00.017860,+00.106513,+00.053731,"$VNYMR,-134.995,+087.873,-164.891,-00.2300,+00.2423,-00.5637,+09.825,+00.249,+00.100,-00.017860,+00.106513,+00.053731*69
"
1712237214.0648649,-138.250,+087.755,-168.169,-00.2289,+00.2411,-00.5690,+09.910,+00.148,+00.252,-00.017757,+00.099036,+00.070722,"$VNYMR,-138.250,+087.755,-168.169,-00.2289,+00.2411,-00.5690,+09.910,+00.148,+00.252,-00.017757,+00.099036,+00.070722*6E
"
1712237214.0908604,-141.452,+087.651,-171.392,-00.2266,+00.2446,-00.5703,+09.959,+00.006,+00.387,-00.015153,+00.076607,+00.076867,"$VNYMR,-141.452,+087.651,-171.392,-00.2266,+00.2446,-00.5703,+09.959,+00.006,+00.387,-00.015153,+00.076607,+00.076867*65
"
1712237214.1179419,-144.288,+087.575,-174.244,-00.2257,+00.2363,-00.5701,+10.004,-00.167,+00.505,-00.011756,+00.054445,+00.071215,"$VNYMR,-144.288,+087.575,-174.244,-00.2257,+00.2363,-00.5701,+10.004,-00.167,+00.505,-00.011756,+00.054445,+00.071215*65
"
1712237214.1418638,-146.497,+087.529,-176.465,-00.2290,+00.2363,-00.5623,+09.980,-00.250,+00.446,-00.008118,+00.026869,+00.055840,"$VNYMR,-146.497,+087.529,-176.465,-00.2290,+00.2363,-00.5623,+09.980,-00.250,+00.446,-00.008118,+00.026869,+00.055840*68
"
1712237214.1671948,-148.026,+087.514,-178.001,-00.2246,+00.2362,-00.5727,+09.912,-00.253,+00.327,-00.004357,+00.006359,+00.037676,"$VNYMR,-148.026,+087.514,-178.001,-00.2246,+00.2362,-00.5727,+09.912,-00.253,+00.327,-00.004357,+00.006359,+00.037676*69
"
1712237214.1895335,-148.980,+087.526,-178.957,-00.2245,+00.2422,-00.5701,+09.893,-00.150,+00.180,-00.002294,-00.008051,+00.022775,"$VNYMR,-148.980,+087.526,-178.957,-00.2245,+00.2422,-00.5701,+09.893,-00.150,+00.180,-00.002294,-00.008051,+00.022775*69
"
1712237214.214984,-149.657,+087.543,-179.634,-00.2264,+00.2564,-00.5717,+09.801,+00.001,+00.067,-00.000540,-00.010734,+00.018726,"$VNYMR,-149.657,+087.543,-179.634,-00.2264,+00.2564,-00.5717,+09.801,+00.001,+00.067,-00.000540,-00.010734,+00.018726*6C
"
1712237214.2396162,-150.492,+087.561,+179.530,-00.2233,+00.2433,-00.5727,+09.753,+00.158,-00.047,-00.000774,-00.007001,+00.028617,"$VNYMR,-150.492,+087.561,+179.530,-00.2233,+00.2433,-00.5727,+09.753,+00.158,-00.047,-00.000774,-00.007001,+00.028617*6F
"
1712237214.264541,-151.824,+087.561,+178.196,-00.2234,+00.2398,-00.5727,+09.711,+00.243,-00.120,-00.003167,+00.004259,+00.045826,"$VNYMR,-151.824,+087.561,+178.196,-00.2234,+00.2398,-00.5727,+09.711,+00.243,-00.120,-00.003167,+00.004259,+00.045826*62
"
1712237214.292191,-153.812,+087.544,+176.203,-00.2256,+00.2398,-00.5595,+09.713,+00.222,-00.121,-00.004892,+00.015564,+00.066304,"$VNYMR,-153.812,+087.544,+176.203,-00.2256,+00.2398,-00.5595,+09.713,+00.222,-00.121,-00.004892,+00.015564,+00.066304*6F
"
1712237214.3143332,-156.245,+087.501,+173.763,-00.2245,+00.2422,-00.5741,+09.772,+00.089,-00.028,-00.006896,+00.025691,+00.079903,"$VNYMR,-156.245,+087.501,+173.763,-00.2245,+00.2422,-00.5741,+09.772,+00.089,-00.028,-00.006896,+00.025691,+00.079903*69
"
1712237214.340782,-158.824,+087.448,+171.176,-00.2254,+00.2528,-00.5649,+09.830,-00.088,+00.094,-00.007369,+00.028664,+00.083554,"$VNYMR,-158.824,+087.448,+171.176,-00.2254,+00.2528,-00.5649,+09.830,-00.088,+00.094,-00.007369,+00.028664,+00.083554*6D
"
1712237214.3644285,-161.138,+087.393,+168.855,-00.2218,+00.2634,-00.5662,+09.894,-00.233,+00.228,-00.006072,+00.018078,+00.073824,"$VNYMR,-161.138,+087.393,+168.855,-00.2218,+00.2634,-00.5662,+09.894,-00.233,+00.228,-00.006072,+00.018078,+00.073824*61
"
1712237214.3921504,-162.999,+087.359,+166.991,-00.2221,+00.2516,-00.5741,+09.926,-00.283,+00.353,-00.001469,+00.005528,+00.054114,"$VNYMR,-162.999,+087.359,+166.991,-00.2221,+00.2516,-00.5741,+09.926,-00.283,+00.353,-00.001469,+00.005528,+00.054114*6D
"
1712237214.4164932,-164.411,+087.360,+165.581,-00.2200,+00.2444,-00.5712,+09.947,-00.290,+00.478,+00.002777,-00.021437,+00.035362,"$VNYMR,-164.411,+087.360,+165.581,-00.2200,+00.2444,-00.5712,+09.947,-00.290,+00.478,+00.002777,-00.021437,+00.035362*68
"
1712237214.439947,-165.504,+087.400,+164.496,-00.2233,+00.2469,-00.5608,+10.006,-00.150,+00.409,+00.006478,-00.043866,+00.020775,"$VNYMR,-165.504,+087.400,+164.496,-00.2233,+00.2469,-00.5608,+10.006,-00.150,+00.409,+00.006478,-00.043866,+00.020775*61
"
1712237214.4642787,-166.598,+087.481,+163.414,-00.2178,+00.2432,-00.5698,+09.943,+00.034,+00.374,+00.009076,-00.069307,+00.017280,"$VNYMR,-166.598,+087.481,+163.414,-00.2178,+00.2432,-00.5698,+09.943,+00.034,+00.374,+00.009076,-00.069307,+00.017280*6A
"
1712237214.4891663,-168.047,+087.580,+161.979,-00.2210,+00.2480,-00.5673,+09.922,+00.131,+00.259,+00.009624,-00.087495,+00.024490,"$VNYMR,-168.047,+087.580,+161.979,-00.2210,+00.2480,-00.5673,+09.922,+00.131,+00.259,+00.009624,-00.087495,+00.024490*61
"
1712237214.5141752,-170.162,+087.690,+159.879,-00.2230,+00.2599,-00.5649,+09.802,+00.179,+00.043,+00.009306,-00.092758,+00.038812,"$VNYMR,-170.162,+087.690,+159.879,-00.2230,+00.2599,-00.5649,+09.802,+00.179,+00.043,+00.009306,-00.092758,+00.038812*6A
"
1712237214.5397387,-172.964,+087.786,+157.091,-00.2220,+00.2551,-00.5768,+09.761,+00.112,-00.126,+00.006680,-00.086821,+00.053734,"$VNYMR,-172.964,+087.786,+157.091,-00.2220,+00.2551,-00.5768,+09.761,+00.112,-00.126,+00.006680,-00.086821,+00.053734*62
"
1712237214.5646214,-176.166,+087.854,+153.898,-00.2187,+00.2515,-00.5659,+09.706,-00.005,-00.185,+00.003349,-00.072735,+00.060162,"$VNYMR,-176.166,+087.854,+153.898,-00.2187,+00.2515,-00.5659,+09.706,-00.005,-00.185,+00.003349,-00.072735,+00.060162*6C
"
1712237214.5893927,-179.355,+087.900,+150.716,-00.2221,+00.2480,-00.5540,+09.693,-00.164,-00.206,+00.002369,-00.056248,+00.056205,"$VNYMR,-179.355,+087.900,+150.716,-00.2221,+00.2480,-00.5540,+09.693,-00.164,-00.206,+00.002369,-00.056248,+00.056205*6C
"
1712237214.6164274,+177.990,+087.923,+148.066,-00.2219,+00.2587,-00.5648,+09.714,-00.258,-00.110,+00.002004,-00.040450,+00.044067,"$VNYMR,+177.990,+087.923,+148.066,-00.2219,+00.2587,-00.5648,+09.714,-00.258,-00.110,+00.002004,-00.040450,+00.044067*6A
"
1712237214.639753,+176.055,+087.941,+146.136,-00.2232,+00.2504,-00.5555,+09.809,-00.287,+00.036,+00.003673,-00.033571,+00.026365,"$VNYMR,+176.055,+087.941,+146.136,-00.2232,+00.2504,-00.5555,+09.809,-00.287,+00.036,+00.003673,-00.033571,+00.026365*6E
"
1712237214.6667476,+174.592,+087.970,+144.680,-00.2230,+00.2599,-00.5609,+09.905,-00.192,+00.218,+00.004966,-00.039902,+00.011731,"$VNYMR,+174.592,+087.970,+144.680,-00.2230,+00.2599,-00.5609,+09.905,-00.192,+00.218,+00.004966,-00.039902,+00.011731*6F
"
1712237214.6893363,+173.158,+088.023,+143.256,-00.2218,+00.2658,-00.5703,+09.969,-00.054,+00.386,+00.007236,-00.056679,+00.005823,"$VNYMR,+173.158,+088.023,+143.256,-00.2218,+00.2658,-00.5703,+09.969,-00.054,+00.386,+00.007236,-00.056679,+00.005823*64
"
1712237214.717042,+171.205,+088.098,+141.315,-00.2210,+00.2515,-00.5634,+09.996,+00.088,+00.489,+00.009135,-00.080881,+00.007720,"$VNYMR,+171.205,+088.098,+141.315,-00.2210,+00.2515,-00.5634,+09.996,+00.088,+00.489,+00.009135,-00.080881,+00.007720*63
"
1712237214.7397654,+167.968,+088.196,+138.094,-00.2232,+00.2492,-00.5555,+09.954,+00.131,+00.481,+00.009246,-00.109246,+00.018163,"$VNYMR,+167.968,+088.196,+138.094,-00.2232,+00.2492,-00.5555,+09.954,+00.131,+00.481,+00.009246,-00.109246,+00.018163*69
"
1712237214.7645805,+163.211,+088.304,+133.353,-00.2219,+00.2587,-00.5635,+09.983,+00.055,+00.372,+00.009734,-00.131786,+00.025280,"$VNYMR,+163.211,+088.304,+133.353,-00.2219,+00.2587,-00.5635,+09.983,+00.055,+00.372,+00.009734,-00.131786,+00.025280*6B
"
1712237214.7893572,+157.084,+088.408,+127.245,-00.2232,+00.2504,-00.5555,+09.795,-00.098,+00.131,+00.010451,-00.141061,+00.025142,"$VNYMR,+157.084,+088.408,+127.245,-00.2232,+00.2504,-00.5555,+09.795,-00.098,+00.131,+00.010451,-00.141061,+00.025142*6A
"
1712237214.814987,+150.349,+088.496,+120.526,-00.2252,+00.2611,-00.5544,+09.793,-00.222,-00.135,+00.009129,-00.137807,+00.016472,"$VNYMR,+150.349,+088.496,+120.526,-00.2252,+00.2611,-00.5544,+09.793,-00.222,-00.135,+00.009129,-00.137807,+00.016472*66
"
1712237214.8394802,+143.867,+088.572,+114.059,-00.2218,+00.2657,-00.5596,+09.608,-00.284,-00.261,+00.009583,-00.119983,+00.000530,"$VNYMR,+143.867,+088.572,+114.059,-00.2218,+00.2657,-00.5596,+09.608,-00.284,-00.261,+00.009583,-00.119983,+00.000530*69
"
1712237214.8664048,+138.136,+088.639,+108.343,-00.2254,+00.2504,-00.5556,+09.643,-00.237,-00.301,+00.007507,-00.094678,-00.014196,"$VNYMR,+138.136,+088.639,+108.343,-00.2254,+00.2504,-00.5556,+09.643,-00.237,-00.301,+00.007507,-00.094678,-00.014196*66
"
1712237214.8928015,+133.702,+088.700,+103.919,-00.2263,+00.2611,-00.5411,+09.671,-00.093,-00.226,+00.005658,-00.074377,-00.023172,"$VNYMR,+133.702,+088.700,+103.919,-00.2263,+00.2611,-00.5411,+09.671,-00.093,-00.226,+00.005658,-00.074377,-00.023172*60
"
1712237214.9145606,+130.007,+088.754,+100.231,-00.2243,+00.2504,-00.5542,+09.761,+00.022,-00.095,+00.002801,-00.056956,-00.022809,"$VNYMR,+130.007,+088.754,+100.231,-00.2243,+00.2504,-00.5542,+09.761,+00.022,-00.095,+00.002801,-00.056956,-00.022809*6E
"
1712237214.9391587,+126.334,+088.795,+096.562,-00.2263,+00.2623,-00.5491,+09.827,+00.115,+00.095,+00.002338,-00.054554,-00.012202,"$VNYMR,+126.334,+088.795,+096.562,-00.2263,+00.2623,-00.5491,+09.827,+00.115,+00.095,+00.002338,-00.054554,-00.012202*62
"
1712237214.9644892,+122.354,+088.814,+092.586,-00.2263,+00.2623,-00.5438,+09.901,+00.116,+00.259,+00.001863,-00.063802,-00.001369,"$VNYMR,+122.354,+088.814,+092.586,-00.2263,+00.2623,-00.5438,+09.901,+00.116,+00.259,+00.001863,-00.063802,-00.001369*6D
"
1712237214.9896355,+117.370,+088.814,+087.606,-00.2253,+00.2552,-00.5503,+09.972,+00.004,+00.326,+00.003325,-00.078796,+00.003117,"$VNYMR,+117.370,+088.814,+087.606,-00.2253,+00.2552,-00.5503,+09.972,+00.004,+00.326,+00.003325,-00.078796,+00.003117*6E
"
1712237215.0141978,+111.238,+088.799,+081.480,-00.2232,+00.2492,-00.5474,+09.926,-00.135,+00.351,+00.003038,-00.099448,-00.000676,"$VNYMR,+111.238,+088.799,+081.480,-00.2232,+00.2492,-00.5474,+09.926,-00.135,+00.351,+00.003038,-00.099448,-00.000676*6F
"
1712237215.0390794,+103.927,+088.778,+074.178,-00.2276,+00.2505,-00.5410,+09.895,-00.280,+00.258,+00.005541,-00.116250,-00.012288,"$VNYMR,+103.927,+088.778,+074.178,-00.2276,+00.2505,-00.5410,+09.895,-00.280,+00.258,+00.005541,-00.116250,-00.012288*6D
"
1712237215.0644274,+095.818,+088.753,+066.082,-00.2254,+00.2493,-00.5449,+09.785,-00.346,+00.109,+00.008400,-00.123846,-00.032788,"$VNYMR,+095.818,+088.753,+066.082,-00.2254,+00.2493,-00.5449,+09.785,-00.346,+00.109,+00.008400,-00.123846,-00.032788*65
"
1712237215.0893793,+087.327,+088.729,+057.606,-00.2266,+00.2493,-00.5356,+09.826,-00.268,-00.098,+00.008924,-00.126585,-00.052705,"$VNYMR,+087.327,+088.729,+057.606,-00.2266,+00.2493,-00.5356,+09.826,-00.268,-00.098,+00.008924,-00.126585,-00.052705*67
"
1712237215.1171064,+079.238,+088.703,+049.534,-00.2296,+00.2635,-00.5373,+09.716,-00.147,-00.200,+00.009883,-00.112537,-00.064427,"$VNYMR,+079.238,+088.703,+049.534,-00.2296,+00.2635,-00.5373,+09.716,-00.147,-00.200,+00.009883,-00.112537,-00.064427*6E
"
1712237215.141486,+071.886,+088.673,+042.195,-00.2275,+00.2552,-00.5477,+09.663,+00.060,-00.262,+00.006630,-00.090880,-00.065079,"$VNYMR,+071.886,+088.673,+042.195,-00.2275,+00.2552,-00.5477,+09.663,+00.060,-00.262,+00.006630,-00.090880,-00.065079*6F
"
1712237215.1659606,+066.298,+088.645,+036.614,-00.2265,+00.2516,-00.5423,+09.614,+00.181,-00.251,+00.002884,-00.063860,-00.050653,"$VNYMR,+066.298,+088.645,+036.614,-00.2265,+00.2516,-00.5423,+09.614,+00.181,-00.251,+00.002884,-00.063860,-00.050653*65
"
1712237215.189289,+062.470,+088.620,+032.788,-00.2277,+00.2469,-00.5316,+09.675,+00.211,-00.248,-00.001308,-00.044267,-00.033723,"$VNYMR,+062.470,+088.620,+032.788,-00.2277,+00.2469,-00.5316,+09.675,+00.211,-00.248,-00.001308,-00.044267,-00.033723*6D
"
1712237215.216702,+060.032,+088.597,+030.344,-00.2266,+00.2469,-00.5409,+09.723,+00.114,-00.114,-00.004890,-00.031894,-00.018954,"$VNYMR,+060.032,+088.597,+030.344,-00.2266,+00.2469,-00.5409,+09.723,+00.114,-00.114,-00.004890,-00.031894,-00.018954*6F
"
1712237215.2414014,+058.438,+088.577,+028.742,-00.2311,+00.2446,-00.5318,+09.801,-00.071,-00.016,-00.005733,-00.021934,-00.013676,"$VNYMR,+058.438,+088.577,+028.742,-00.2311,+00.2446,-00.5318,+09.801,-00.071,-00.016,-00.005733,-00.021934,-00.013676*65
"
1712237215.2644715,+056.852,+088.564,+027.146,-00.2275,+00.2564,-00.5331,+09.802,-00.229,+00.133,-00.007712,-00.023510,-00.023087,"$VNYMR,+056.852,+088.564,+027.146,-00.2275,+00.2564,-00.5331,+09.802,-00.229,+00.133,-00.007712,-00.023510,-00.023087*63
"
1712237215.2892363,+054.426,+088.555,+024.713,-00.2253,+00.2552,-00.5383,+09.864,-00.338,+00.202,-00.004393,-00.028870,-00.043123,"$VNYMR,+054.426,+088.555,+024.713,-00.2253,+00.2552,-00.5383,+09.864,-00.338,+00.202,-00.004393,-00.028870,-00.043123*66
"
1712237215.3143299,+050.741,+088.538,+021.026,-00.2256,+00.2433,-00.5408,+09.836,-00.297,+00.250,-00.001030,-00.040283,-00.063488,"$VNYMR,+050.741,+088.538,+021.026,-00.2256,+00.2433,-00.5408,+09.836,-00.297,+00.250,-00.001030,-00.040283,-00.063488*6D
"
1712237215.3416035,+046.057,+088.514,+016.345,-00.2287,+00.2517,-00.5264,+09.880,-00.166,+00.220,+00.001760,-00.050381,-00.079784,"$VNYMR,+046.057,+088.514,+016.345,-00.2287,+00.2517,-00.5264,+09.880,-00.166,+00.220,+00.001760,-00.050381,-00.079784*64
"
1712237215.3644245,+040.997,+088.470,+011.288,-00.2267,+00.2422,-00.5382,+09.801,-00.010,+00.135,+00.001849,-00.055541,-00.084215,"$VNYMR,+040.997,+088.470,+011.288,-00.2267,+00.2422,-00.5382,+09.801,-00.010,+00.135,+00.001849,-00.055541,-00.084215*69
"
1712237215.3892248,+036.419,+088.410,+006.712,-00.2290,+00.2399,-00.5303,+09.802,+00.144,-00.018,+00.000508,-00.055311,-00.074876,"$VNYMR,+036.419,+088.410,+006.712,-00.2290,+00.2399,-00.5303,+09.802,+00.144,-00.018,+00.000508,-00.055311,-00.074876*64
"
1712237215.4142609,+032.918,+088.348,+003.211,-00.2321,+00.2494,-00.5306,+09.697,+00.215,-00.152,-00.002531,-00.046253,-00.057488,"$VNYMR,+032.918,+088.348,+003.211,-00.2321,+00.2494,-00.5306,+09.697,+00.215,-00.152,-00.002531,-00.046253,-00.057488*6C
"
1712237215.440484,+030.498,+088.305,+000.785,-00.2266,+00.2493,-00.5329,+09.646,+00.141,-00.260,-00.007958,-00.025987,-00.040222,"$VNYMR,+030.498,+088.305,+000.785,-00.2266,+00.2493,-00.5329,+09.646,+00.141,-00.260,-00.007958,-00.025987,-00.040222*6C
"
1712237215.4662104,+028.806,+088.290,-000.920,-00.2279,+00.2387,-00.5369,+09.614,-00.004,-00.384,-00.009722,+00.002072,-00.032512,"$VNYMR,+028.806,+088.290,-000.920,-00.2279,+00.2387,-00.5369,+09.614,-00.004,-00.384,-00.009722,+00.002072,-00.032512*6A
"
1712237215.489013,+027.266,+088.314,-002.477,-00.2287,+00.2505,-00.5237,+09.596,-00.137,-00.319,-00.013876,+00.027690,-00.031920,"$VNYMR,+027.266,+088.314,-002.477,-00.2287,+00.2505,-00.5237,+09.596,-00.137,-00.319,-00.013876,+00.027690,-00.031920*64
"
1712237215.5161638,+025.256,+088.373,-004.507,-00.2257,+00.2374,-00.5354,+09.675,-00.223,-00.181,-00.016717,+00.048163,-00.043456,"$VNYMR,+025.256,+088.373,-004.507,-00.2257,+00.2374,-00.5354,+09.675,-00.223,-00.181,-00.016717,+00.048163,-00.043456*60
"
1712237215.541141,+022.443,+088.444,-007.340,-00.2302,+00.2352,-00.5276,+09.745,-00.217,-00.024,-00.015256,+00.061205,-00.056017,"$VNYMR,+022.443,+088.444,-007.340,-00.2302,+00.2352,-00.5276,+09.745,-00.217,-00.024,-00.015256,+00.061205,-00.056017*61
"
1712237215.5643544,+018.613,+088.521,-011.189,-00.2287,+00.2505,-00.5397,+09.827,-00.110,+00.116,-00.015386,+00.062764,-00.065556,"$VNYMR,+018.613,+088.521,-011.189,-00.2287,+00.2505,-00.5397,+09.827,-00.110,+00.116,-00.015386,+00.062764,-00.065556*6F
"
1712237215.5890377,+014.232,+088.579,-015.588,-00.2243,+00.2504,-00.5395,+09.884,+00.010,+00.269,-00.012673,+00.052077,-00.065251,"$VNYMR,+014.232,+088.579,-015.588,-00.2243,+00.2504,-00.5395,+09.884,+00.010,+00.269,-00.012673,+00.052077,-00.065251*68
"
1712237215.6142206,+009.951,+088.613,-019.885,-00.2300,+00.2422,-00.5397,+09.938,+00.117,+00.328,-00.012127,+00.034965,-00.059213,"$VNYMR,+009.951,+088.613,-019.885,-00.2300,+00.2422,-00.5397,+09.938,+00.117,+00.328,-00.012127,+00.034965,-00.059213*69
"
1712237215.6412756,+006.484,+088.619,-023.367,-00.2280,+00.2339,-00.5302,+09.905,+00.160,+00.248,-00.011873,+00.020499,-00.047457,"$VNYMR,+006.484,+088.619,-023.367,-00.2280,+00.2339,-00.5302,+09.905,+00.160,+00.248,-00.011873,+00.020499,-00.047457*6F
"
1712237215.6645975,+003.966,+088.613,-025.900,-00.2245,+00.2398,-00.5407,+09.827,+00.107,+00.103,-00.011357,+00.013170,-00.036422,"$VNYMR,+003.966,+088.613,-025.900,-00.2245,+00.2398,-00.5407,+09.827,+00.107,+00.103,-00.011357,+00.013170,-00.036422*6B
"
1712237215.689078,+001.894,+088.611,-027.989,-00.2279,+00.2387,-00.5396,+09.777,+00.024,-00.073,-00.011861,+00.014494,-00.029830,"$VNYMR,+001.894,+088.611,-027.989,-00.2279,+00.2387,-00.5396,+09.777,+00.024,-00.073,-00.011861,+00.014494,-00.029830*67
"
1712237215.7143707,-000.270,+088.621,-030.170,-00.2289,+00.2410,-00.5303,+09.649,-00.086,-00.201,-00.011435,+00.028053,-00.029408,"$VNYMR,-000.270,+088.621,-030.170,-00.2289,+00.2410,-00.5303,+09.649,-00.086,-00.201,-00.011435,+00.028053,-00.029408*6E
"
1712237215.7394884,-003.367,+088.653,-033.287,-00.2244,+00.2481,-00.5475,+09.614,-00.143,-00.354,-00.015945,+00.054372,-00.036430,"$VNYMR,-003.367,+088.653,-033.287,-00.2244,+00.2481,-00.5475,+09.614,-00.143,-00.354,-00.015945,+00.054372,-00.036430*69
"
1712237215.764437,-007.787,+088.704,-037.728,-00.2247,+00.2327,-00.5406,+09.616,-00.112,-00.302,-00.016507,+00.080093,-00.041762,"$VNYMR,-007.787,+088.704,-037.728,-00.2247,+00.2327,-00.5406,+09.616,-00.112,-00.302,-00.016507,+00.080093,-00.041762*61
"
1712237215.7921746,-013.963,+088.772,-043.928,-00.2279,+00.2351,-00.5302,+09.637,-00.026,-00.237,-00.019273,+00.105318,-00.043178,"$VNYMR,-013.963,+088.772,-043.928,-00.2279,+00.2351,-00.5302,+09.637,-00.026,-00.237,-00.019273,+00.105318,-00.043178*69
"
1712237215.8142867,-021.753,+088.844,-051.744,-00.2235,+00.2327,-00.5473,+09.758,+00.068,-00.046,-00.019096,+00.121382,-00.036751,"$VNYMR,-021.753,+088.844,-051.744,-00.2235,+00.2327,-00.5473,+09.758,+00.068,-00.046,-00.019096,+00.121382,-00.036751*63
"
1712237215.8404727,-030.442,+088.907,-060.459,-00.2257,+00.2374,-00.5381,+09.823,+00.149,+00.101,-00.020312,+00.124209,-00.025759,"$VNYMR,-030.442,+088.907,-060.459,-00.2257,+00.2374,-00.5381,+09.823,+00.149,+00.101,-00.020312,+00.124209,-00.025759*6E
"
1712237215.8648963,-039.341,+088.958,-069.387,-00.2290,+00.2399,-00.5396,+09.918,+00.150,+00.243,-00.020473,+00.113394,-00.013207,"$VNYMR,-039.341,+088.958,-069.387,-00.2290,+00.2399,-00.5396,+09.918,+00.150,+00.243,-00.020473,+00.113394,-00.013207*64
"
1712237215.892223,-047.496,+088.993,-077.569,-00.2224,+00.2362,-00.5526,+09.967,+00.088,+00.332,-00.020662,+00.094280,-00.001176,"$VNYMR,-047.496,+088.993,-077.569,-00.2224,+00.2362,-00.5526,+09.967,+00.088,+00.332,-00.020662,+00.094280,-00.001176*6D
"
1712237215.9143622,-054.587,+089.015,-084.686,-00.2223,+00.2386,-00.5499,+09.899,-00.087,+00.307,-00.018322,+00.077852,+00.000722,"$VNYMR,-054.587,+089.015,-084.686,-00.2223,+00.2386,-00.5499,+09.899,-00.087,+00.307,-00.018322,+00.077852,+00.000722*63
"
1712237215.9414406,-060.412,+089.017,-090.532,-00.2258,+00.2315,-00.5354,+09.897,-00.212,+00.228,-00.013998,+00.062020,-00.008350,"$VNYMR,-060.412,+089.017,-090.532,-00.2258,+00.2315,-00.5354,+09.897,-00.212,+00.228,-00.013998,+00.062020,-00.008350*68
"
1712237215.965834,-065.196,+088.994,-095.333,-00.2235,+00.2374,-00.5500,+09.799,-00.136,+00.076,-00.012703,+00.056822,-00.018520,"$VNYMR,-065.196,+088.994,-095.333,-00.2235,+00.2374,-00.5500,+09.799,-00.136,+00.076,-00.012703,+00.056822,-00.018520*63
"
1712237215.9910154,-069.672,+088.957,-099.824,-00.2258,+00.2303,-00.5487,+09.778,+00.045,-00.067,-00.011627,+00.062408,-00.019022,"$VNYMR,-069.672,+088.957,-099.824,-00.2258,+00.2303,-00.5487,+09.778,+00.045,-00.067,-00.011627,+00.062408,-00.019022*62
"
1712237216.0143116,-074.561,+088.920,-104.731,-00.2233,+00.2433,-00.5487,+09.683,+00.130,-00.150,-00.013313,+00.073122,-00.008180,"$VNYMR,-074.561,+088.920,-104.731,-00.2233,+00.2433,-00.5487,+09.683,+00.130,-00.150,-00.013313,+00.073122,-00.008180*6F
"
1712237216.0419886,-080.367,+088.886,-110.556,-00.2223,+00.2374,-00.5539,+09.682,+00.163,-00.212,-00.015601,+00.090577,+00.002851,"$VNYMR,-080.367,+088.886,-110.556,-00.2223,+00.2374,-00.5539,+09.682,+00.163,-00.212,-00.015601,+00.090577,+00.002851*6C
"
1712237216.0643826,-087.514,+088.846,-117.726,-00.2203,+00.2302,-00.5511,+09.666,+00.143,-00.249,-00.018564,+00.106915,+00.020080,"$VNYMR,-087.514,+088.846,-117.726,-00.2203,+00.2302,-00.5511,+09.666,+00.143,-00.249,-00.018564,+00.106915,+00.020080*67
"
1712237216.0919142,-095.577,+088.790,-125.815,-00.2225,+00.2315,-00.5459,+09.725,+00.069,-00.141,-00.019341,+00.127399,+00.030428,"$VNYMR,-095.577,+088.790,-125.815,-00.2225,+00.2315,-00.5459,+09.725,+00.069,-00.141,-00.019341,+00.127399,+00.030428*6A
"
1712237216.1144779,-103.651,+088.710,-133.916,-00.2223,+00.2397,-00.5540,+09.809,-00.016,+00.012,-00.021046,+00.131783,+00.034628,"$VNYMR,-103.651,+088.710,-133.916,-00.2223,+00.2397,-00.5540,+09.809,-00.016,+00.012,-00.021046,+00.131783,+00.034628*64
"
1712237216.140664,-110.615,+088.604,-140.907,-00.2189,+00.2432,-00.5538,+09.878,-00.172,+00.109,-00.019176,+00.128418,+00.028401,"$VNYMR,-110.615,+088.604,-140.907,-00.2189,+00.2432,-00.5538,+09.878,-00.172,+00.109,-00.019176,+00.128418,+00.028401*68
"
1712237216.1642985,-115.915,+088.483,-146.227,-00.2234,+00.2386,-00.5513,+09.932,-00.111,+00.314,-00.015490,+00.117037,+00.019863,"$VNYMR,-115.915,+088.483,-146.227,-00.2234,+00.2386,-00.5513,+09.932,-00.111,+00.314,-00.015490,+00.117037,+00.019863*6E
"
1712237216.1891582,-119.626,+088.370,-149.956,-00.2178,+00.2408,-00.5604,+09.977,+00.004,+00.413,-00.012580,+00.097868,+00.015996,"$VNYMR,-119.626,+088.370,-149.956,-00.2178,+00.2408,-00.5604,+09.977,+00.004,+00.413,-00.012580,+00.097868,+00.015996*62
"
1712237216.2174578,-122.406,+088.277,-152.751,-00.2159,+00.2290,-00.5602,+09.992,+00.044,+00.413,-00.009095,+00.074037,+00.019439,"$VNYMR,-122.406,+088.277,-152.751,-00.2159,+00.2290,-00.5602,+09.992,+00.044,+00.413,-00.009095,+00.074037,+00.019439*62
"
1712237216.2392368,-124.668,+088.216,-155.023,-00.2190,+00.2409,-00.5511,+09.902,+00.087,+00.329,-00.007494,+00.053640,+00.026558,"$VNYMR,-124.668,+088.216,-155.023,-00.2190,+00.2409,-00.5511,+09.902,+00.087,+00.329,-00.007494,+00.053640,+00.026558*64
"
1712237216.265586,-126.844,+088.176,-157.208,-00.2181,+00.2290,-00.5629,+09.899,+00.087,+00.186,-00.006081,+00.040136,+00.034375,"$VNYMR,-126.844,+088.176,-157.208,-00.2181,+00.2290,-00.5629,+09.899,+00.087,+00.186,-00.006081,+00.040136,+00.034375*6F
"
1712237216.2900195,-129.232,+088.146,-159.605,-00.2168,+00.2349,-00.5536,+09.820,+00.084,+00.004,-00.008519,+00.037942,+00.043967,"$VNYMR,-129.232,+088.146,-159.605,-00.2168,+00.2349,-00.5536,+09.820,+00.084,+00.004,-00.008519,+00.037942,+00.043967*62
"
1712237216.313952,-131.842,+088.112,-162.224,-00.2200,+00.2421,-00.5619,+09.710,+00.024,-00.091,-00.008793,+00.048710,+00.049055,"$VNYMR,-131.842,+088.112,-162.224,-00.2200,+00.2421,-00.5619,+09.710,+00.024,-00.091,-00.008793,+00.048710,+00.049055*6D
"
1712237216.339382,-134.674,+088.058,-165.066,-00.2179,+00.2397,-00.5604,+09.690,-00.039,-00.205,-00.008739,+00.062021,+00.051226,"$VNYMR,-134.674,+088.058,-165.066,-00.2179,+00.2397,-00.5604,+09.690,-00.039,-00.205,-00.008739,+00.062021,+00.051226*6A
"
1712237216.3663795,-137.421,+087.976,-167.825,-00.2178,+00.2420,-00.5644,+09.685,-00.095,-00.166,-00.008814,+00.077465,+00.048978,"$VNYMR,-137.421,+087.976,-167.825,-00.2178,+00.2420,-00.5644,+09.685,-00.095,-00.166,-00.008814,+00.077465,+00.048978*6E
"
1712237216.3888874,-139.939,+087.871,-170.355,-00.2177,+00.2491,-00.5538,+09.768,-00.059,-00.042,-00.010733,+00.088437,+00.046430,"$VNYMR,-139.939,+087.871,-170.355,-00.2177,+00.2491,-00.5538,+09.768,-00.059,-00.042,-00.010733,+00.088437,+00.046430*6B
"
1712237216.4162438,-142.140,+087.753,-172.568,-00.2135,+00.2372,-00.5628,+09.815,-00.042,+00.115,-00.009150,+00.092179,+00.044389,"$VNYMR,-142.140,+087.753,-172.568,-00.2135,+00.2372,-00.5628,+09.815,-00.042,+00.115,-00.009150,+00.092179,+00.044389*68
"
1712237216.440467,-144.139,+087.639,-174.578,-00.2167,+00.2432,-00.5684,+09.911,-00.001,+00.272,-00.007769,+00.080916,+00.045754,"$VNYMR,-144.139,+087.639,-174.578,-00.2167,+00.2432,-00.5684,+09.911,-00.001,+00.272,-00.007769,+00.080916,+00.045754*6D
"
1712237216.4651344,-145.993,+087.548,-176.439,-00.2144,+00.2443,-00.5656,+09.988,+00.058,+00.393,-00.005491,+00.061439,+00.050203,"$VNYMR,-145.993,+087.548,-176.439,-00.2144,+00.2443,-00.5656,+09.988,+00.058,+00.393,-00.005491,+00.061439,+00.050203*61
"
1712237216.489852,-147.875,+087.485,-178.327,-00.2134,+00.2431,-00.5722,+09.952,+00.042,+00.455,-00.002974,+00.035116,+00.056032,"$VNYMR,-147.875,+087.485,-178.327,-00.2134,+00.2431,-00.5722,+09.952,+00.042,+00.455,-00.002974,+00.035116,+00.056032*63
"
1712237216.5148706,-149.810,+087.458,+179.737,-00.2112,+00.2419,-00.5721,+09.973,+00.038,+00.428,-00.001872,+00.009246,+00.061098,"$VNYMR,-149.810,+087.458,+179.737,-00.2112,+00.2419,-00.5721,+09.973,+00.038,+00.428,-00.001872,+00.009246,+00.061098*6C
"
1712237216.5391595,-151.794,+087.463,+177.755,-00.2124,+00.2360,-00.5641,+09.908,-00.040,+00.328,+00.001003,-00.010147,+00.060102,"$VNYMR,-151.794,+087.463,+177.755,-00.2124,+00.2360,-00.5641,+09.908,-00.040,+00.328,+00.001003,-00.010147,+00.060102*6A
"
1712237216.5668445,-153.772,+087.486,+175.782,-00.2101,+00.2407,-00.5707,+09.862,-00.082,+00.168,+00.002313,-00.024659,+00.057813,"$VNYMR,-153.772,+087.486,+175.782,-00.2101,+00.2407,-00.5707,+09.862,-00.082,+00.168,+00.002313,-00.024659,+00.057813*67
"
1712237216.58878,-155.670,+087.515,+173.892,-00.2121,+00.2490,-00.5669,+09.792,-00.082,+00.031,+00.003998,-00.026453,+00.052571,"$VNYMR,-155.670,+087.515,+173.892,-00.2121,+00.2490,-00.5669,+09.792,-00.082,+00.031,+00.003998,-00.026453,+00.052571*67
"
1712237216.6148448,-157.390,+087.539,+172.172,-00.2121,+00.2502,-00.5696,+09.686,-00.107,-00.110,+00.004082,-00.018826,+00.047028,"$VNYMR,-157.390,+087.539,+172.172,-00.2121,+00.2502,-00.5696,+09.686,-00.107,-00.110,+00.004082,-00.018826,+00.047028*6B
"
1712237216.640157,-158.979,+087.547,+170.588,-00.2099,+00.2490,-00.5748,+09.725,-00.056,-00.137,+00.002362,-00.004184,+00.043911,"$VNYMR,-158.979,+087.547,+170.588,-00.2099,+00.2490,-00.5748,+09.725,-00.056,-00.137,+00.002362,-00.004184,+00.043911*61
"
1712237216.6653,-160.414,+087.534,+169.154,-00.2086,+00.2596,-00.5695,+09.729,-00.004,-00.117,+00.001959,+00.006722,+00.044069,"$VNYMR,-160.414,+087.534,+169.154,-00.2086,+00.2596,-00.5695,+09.729,-00.004,-00.117,+00.001959,+00.006722,+00.044069*6A
"
1712237216.6889935,-161.871,+087.505,+167.697,-00.2133,+00.2443,-00.5549,+09.819,+00.037,+00.025,+00.001696,+00.015408,+00.048734,"$VNYMR,-161.871,+087.505,+167.697,-00.2133,+00.2443,-00.5549,+09.819,+00.037,+00.025,+00.001696,+00.015408,+00.048734*6E
"
1712237216.715126,-163.467,+087.470,+166.105,-00.2100,+00.2431,-00.5694,+09.815,+00.059,+00.141,+00.001887,+00.010978,+00.055858,"$VNYMR,-163.467,+087.470,+166.105,-00.2100,+00.2431,-00.5694,+09.815,+00.059,+00.141,+00.001887,+00.010978,+00.055858*60
"
1712237216.7397249,-165.276,+087.444,+164.300,-00.2100,+00.2454,-00.5641,+09.947,+00.006,+00.289,+00.001894,+00.001175,+00.061374,"$VNYMR,-165.276,+087.444,+164.300,-00.2100,+00.2454,-00.5641,+09.947,+00.006,+00.289,+00.001894,+00.001175,+00.061374*67
"
1712237216.76529,-167.271,+087.437,+162.313,-00.2087,+00.2537,-00.5668,+09.937,-00.053,+00.417,+00.004239,-00.019330,+00.061657,"$VNYMR,-167.271,+087.437,+162.313,-00.2087,+00.2537,-00.5668,+09.937,-00.053,+00.417,+00.004239,-00.019330,+00.061657*63
"
1712237216.7902296,-169.393,+087.457,+160.193,-00.2087,+00.2525,-00.5708,+09.955,-00.116,+00.396,+00.006518,-00.042606,+00.056181,"$VNYMR,-169.393,+087.457,+160.193,-00.2087,+00.2525,-00.5708,+09.955,-00.116,+00.396,+00.006518,-00.042606,+00.056181*60
"
1712237216.8153367,-171.607,+087.508,+157.987,-00.2088,+00.2478,-00.5694,+09.928,-00.152,+00.420,+00.008665,-00.065923,+00.046688,"$VNYMR,-171.607,+087.508,+157.987,-00.2088,+00.2478,-00.5694,+09.928,-00.152,+00.420,+00.008665,-00.065923,+00.046688*64
"
1712237216.8414664,-173.842,+087.589,+155.757,-00.2100,+00.2454,-00.5641,+09.922,-00.179,+00.314,+00.011793,-00.085216,+00.035236,"$VNYMR,-173.842,+087.589,+155.757,-00.2100,+00.2454,-00.5641,+09.922,-00.179,+00.314,+00.011793,-00.085216,+00.035236*63
"
1712237216.8659613,-176.136,+087.691,+153.473,-00.2100,+00.2454,-00.5721,+09.810,-00.149,+00.158,+00.014009,-00.094917,+00.026095,"$VNYMR,-176.136,+087.691,+153.473,-00.2100,+00.2454,-00.5721,+09.810,-00.149,+00.158,+00.014009,-00.094917,+00.026095*69
"
1712237216.889088,-178.445,+087.798,+151.178,-00.2121,+00.2502,-00.5562,+09.789,-00.074,+00.020,+00.013466,-00.093044,+00.019993,"$VNYMR,-178.445,+087.798,+151.178,-00.2121,+00.2502,-00.5562,+09.789,-00.074,+00.020,+00.013466,-00.093044,+00.019993*69
"
1712237216.916956,+179.194,+087.896,+148.824,-00.2086,+00.2608,-00.5588,+09.697,+00.010,-00.124,+00.012266,-00.086964,+00.020602,"$VNYMR,+179.194,+087.896,+148.824,-00.2086,+00.2608,-00.5588,+09.697,+00.010,-00.124,+00.012266,-00.086964,+00.020602*63
"
1712237216.9399087,+176.734,+087.975,+146.372,-00.2098,+00.2572,-00.5642,+09.742,+00.045,-00.126,+00.011342,-00.072694,+00.025935,"$VNYMR,+176.734,+087.975,+146.372,-00.2098,+00.2572,-00.5642,+09.742,+00.045,-00.126,+00.011342,-00.072694,+00.025935*64
"
1712237216.9650016,+174.243,+088.027,+143.878,-00.2088,+00.2490,-00.5600,+09.721,+00.071,-00.096,+00.008044,-00.063070,+00.033934,"$VNYMR,+174.243,+088.027,+143.878,-00.2088,+00.2490,-00.5600,+09.721,+00.071,-00.096,+00.008044,-00.063070,+00.033934*63
"
1712237216.9930809,+171.574,+088.062,+141.203,-00.2099,+00.2478,-00.5534,+09.818,+00.015,+00.014,+00.006148,-00.051707,+00.039860,"$VNYMR,+171.574,+088.062,+141.203,-00.2099,+00.2478,-00.5534,+09.818,+00.015,+00.014,+00.006148,-00.051707,+00.039860*66
"
1712237217.0181084,+168.841,+088.086,+138.470,-00.2099,+00.2478,-00.5614,+09.834,-00.084,+00.087,+00.006441,-00.051605,+00.038690,"$VNYMR,+168.841,+088.086,+138.470,-00.2099,+00.2478,-00.5614,+09.834,-00.084,+00.087,+00.006441,-00.051605,+00.038690*67
"
1712237217.042459,+166.162,+088.112,+135.786,-00.2109,+00.2561,-00.5549,+09.901,-00.164,+00.224,+00.006880,-00.058976,+00.032421,"$VNYMR,+166.162,+088.112,+135.786,-00.2109,+00.2561,-00.5549,+09.901,-00.164,+00.224,+00.006880,-00.058976,+00.032421*62
"
1712237217.0679948,+163.275,+088.156,+132.900,-00.2119,+00.2608,-00.5550,+09.894,-00.206,+00.329,+00.008691,-00.073975,+00.019614,"$VNYMR,+163.275,+088.156,+132.900,-00.2119,+00.2608,-00.5550,+09.894,-00.206,+00.329,+00.008691,-00.073975,+00.019614*61
"
1712237217.0902615,+159.990,+088.228,+129.617,-00.2109,+00.2573,-00.5696,+09.955,-00.223,+00.350,+00.010545,-00.090780,+00.005722,"$VNYMR,+159.990,+088.228,+129.617,-00.2109,+00.2573,-00.5696,+09.955,-00.223,+00.350,+00.010545,-00.090780,+00.005722*60
"
1712237217.1165683,+156.120,+088.323,+125.748,-00.2066,+00.2501,-00.5573,+09.929,-00.149,+00.372,+00.013419,-00.110903,-00.007026,"$VNYMR,+156.120,+088.323,+125.748,-00.2066,+00.2501,-00.5573,+09.929,-00.149,+00.372,+00.013419,-00.110903,-00.007026*60
"
1712237217.1398013,+151.449,+088.432,+121.083,-00.2144,+00.2479,-00.5430,+09.904,-00.082,+00.240,+00.014914,-00.126648,-00.011823,"$VNYMR,+151.449,+088.432,+121.083,-00.2144,+00.2479,-00.5430,+09.904,-00.082,+00.240,+00.014914,-00.126648,-00.011823*66
"
1712237217.1649728,+145.669,+088.538,+115.309,-00.2122,+00.2466,-00.5602,+09.848,-00.027,+00.098,+00.014455,-00.129996,-00.013257,"$VNYMR,+145.669,+088.538,+115.309,-00.2122,+00.2466,-00.5602,+09.848,-00.027,+00.098,+00.014455,-00.129996,-00.013257*62
"
1712237217.1900892,+139.136,+088.625,+108.779,-00.2132,+00.2526,-00.5456,+09.703,+00.010,-00.088,+00.013510,-00.126394,-00.009894,"$VNYMR,+139.136,+088.625,+108.779,-00.2132,+00.2526,-00.5456,+09.703,+00.010,-00.088,+00.013510,-00.126394,-00.009894*68
"
1712237217.2171125,+132.147,+088.684,+101.792,-00.2141,+00.2609,-00.5431,+09.706,+00.001,-00.211,+00.010443,-00.114543,-00.005391,"$VNYMR,+132.147,+088.684,+101.792,-00.2141,+00.2609,-00.5431,+09.706,+00.001,-00.211,+00.010443,-00.114543,-00.005391*65
"
1712237217.2399802,+125.663,+088.715,+095.307,-00.2120,+00.2549,-00.5523,+09.662,-00.029,-00.208,+00.007778,-00.096405,-00.003882,"$VNYMR,+125.663,+088.715,+095.307,-00.2120,+00.2549,-00.5523,+09.662,-00.029,-00.208,+00.007778,-00.096405,-00.003882*60
"
1712237217.2649727,+120.245,+088.730,+089.885,-00.2122,+00.2455,-00.5455,+09.679,-00.100,-00.185,+00.005405,-00.076015,-00.005349,"$VNYMR,+120.245,+088.730,+089.885,-00.2122,+00.2455,-00.5455,+09.679,-00.100,-00.185,+00.005405,-00.076015,-00.005349*6C
"
1712237217.2902224,+115.804,+088.741,+085.434,-00.2132,+00.2490,-00.5349,+09.709,-00.156,-00.101,+00.003443,-00.061526,-00.011829,"$VNYMR,+115.804,+088.741,+085.434,-00.2132,+00.2490,-00.5349,+09.709,-00.156,-00.101,+00.003443,-00.061526,-00.011829*6D
"
1712237217.3169038,+111.919,+088.757,+081.538,-00.2133,+00.2455,-00.5469,+09.830,-00.177,+00.010,+00.003029,-00.055034,-00.020714,"$VNYMR,+111.919,+088.757,+081.538,-00.2133,+00.2455,-00.5469,+09.830,-00.177,+00.010,+00.003029,-00.055034,-00.020714*6C
"
1712237217.3425307,+107.765,+088.779,+077.375,-00.2177,+00.2491,-00.5445,+09.856,-00.140,+00.187,+00.001750,-00.059913,-00.028653,"$VNYMR,+107.765,+088.779,+077.375,-00.2177,+00.2491,-00.5445,+09.856,-00.140,+00.187,+00.001750,-00.059913,-00.028653*68
"
1712237217.367604,+102.942,+088.801,+072.544,-00.2186,+00.2574,-00.5446,+09.904,-00.110,+00.281,+00.004269,-00.073735,-00.033481,"$VNYMR,+102.942,+088.801,+072.544,-00.2186,+00.2574,-00.5446,+09.904,-00.110,+00.281,+00.004269,-00.073735,-00.033481*69
"
1712237217.3900306,+096.785,+088.811,+066.377,-00.2165,+00.2550,-00.5525,+09.895,-00.044,+00.329,+00.004455,-00.086755,-00.037282,"$VNYMR,+096.785,+088.811,+066.377,-00.2165,+00.2550,-00.5525,+09.895,-00.044,+00.329,+00.004455,-00.086755,-00.037282*63
"
1712237217.4171693,+089.581,+088.797,+059.167,-00.2143,+00.2526,-00.5457,+09.911,-00.071,+00.231,+00.005742,-00.103516,-00.038375,"$VNYMR,+089.581,+088.797,+059.167,-00.2143,+00.2526,-00.5457,+09.911,-00.071,+00.231,+00.005742,-00.103516,-00.038375*6C
"
1712237217.4400058,+082.065,+088.759,+051.646,-00.2155,+00.2467,-00.5350,+09.839,-00.053,+00.164,+00.006312,-00.112345,-00.039791,"$VNYMR,+082.065,+088.759,+051.646,-00.2155,+00.2467,-00.5350,+09.839,-00.053,+00.164,+00.006312,-00.112345,-00.039791*60
"
1712237217.4647212,+074.876,+088.697,+044.457,-00.2166,+00.2479,-00.5391,+09.780,-00.074,-00.005,+00.004836,-00.110477,-00.041579,"$VNYMR,+074.876,+088.697,+044.457,-00.2166,+00.2479,-00.5391,+09.780,-00.074,-00.005,+00.004836,-00.110477,-00.041579*6C
"
1712237217.4896789,+068.678,+088.630,+038.249,-00.2188,+00.2479,-00.5365,+09.682,-00.101,-00.176,+00.002862,-00.097689,-00.045294,"$VNYMR,+068.678,+088.630,+038.249,-00.2188,+00.2479,-00.5365,+09.682,-00.101,-00.176,+00.002862,-00.097689,-00.045294*6A
"
1712237217.5148344,+063.498,+088.571,+033.061,-00.2198,+00.2539,-00.5300,+09.662,-00.099,-00.248,+00.001037,-00.076116,-00.048746,"$VNYMR,+063.498,+088.571,+033.061,-00.2198,+00.2539,-00.5300,+09.662,-00.099,-00.248,+00.001037,-00.076116,-00.048746*6D
"
1712237217.5398285,+059.244,+088.535,+028.795,-00.2175,+00.2597,-00.5406,+09.604,-00.083,-00.280,-00.001858,-00.053579,-00.051626,"$VNYMR,+059.244,+088.535,+028.795,-00.2175,+00.2597,-00.5406,+09.604,-00.083,-00.280,-00.001858,-00.053579,-00.051626*6E
"
1712237217.5648696,+055.686,+088.523,+025.222,-00.2167,+00.2432,-00.5390,+09.625,-00.050,-00.237,-00.006557,-00.029303,-00.052698,"$VNYMR,+055.686,+088.523,+025.222,-00.2167,+00.2432,-00.5390,+09.625,-00.050,-00.237,-00.006557,-00.029303,-00.052698*6A
"
1712237217.5896795,+052.573,+088.530,+022.087,-00.2201,+00.2409,-00.5312,+09.741,+00.018,-00.099,-00.010678,-00.012382,-00.051624,"$VNYMR,+052.573,+088.530,+022.087,-00.2201,+00.2409,-00.5312,+09.741,+00.018,-00.099,-00.010678,-00.012382,-00.051624*6E
"
1712237217.6148722,+049.739,+088.542,+019.230,-00.2223,+00.2421,-00.5353,+09.796,+00.015,+00.032,-00.010079,-00.006567,-00.048168,"$VNYMR,+049.739,+088.542,+019.230,-00.2223,+00.2421,-00.5353,+09.796,+00.015,+00.032,-00.010079,-00.006567,-00.048168*6C
"
1712237217.6429052,+047.036,+088.554,+016.498,-00.2222,+00.2433,-00.5326,+09.833,-00.018,+00.196,-00.010141,-00.012026,-00.046303,"$VNYMR,+047.036,+088.554,+016.498,-00.2222,+00.2433,-00.5326,+09.833,-00.018,+00.196,-00.010141,-00.012026,-00.046303*6C
"
1712237217.6648114,+044.243,+088.549,+013.681,-00.2221,+00.2516,-00.5301,+09.893,-00.061,+00.249,-00.010567,-00.019675,-00.047464,"$VNYMR,+044.243,+088.549,+013.681,-00.2221,+00.2516,-00.5301,+09.893,-00.061,+00.249,-00.010567,-00.019675,-00.047464*65
"
1712237217.6897109,+041.178,+088.524,+010.594,-00.2221,+00.2480,-00.5420,+09.863,-00.108,+00.272,-00.008051,-00.033664,-00.050800,"$VNYMR,+041.178,+088.524,+010.594,-00.2221,+00.2480,-00.5420,+09.863,-00.108,+00.272,-00.008051,-00.033664,-00.050800*6E
"
1712237217.714836,+037.879,+088.484,+007.277,-00.2212,+00.2374,-00.5352,+09.859,-00.113,+00.162,-00.007842,-00.040992,-00.057023,"$VNYMR,+037.879,+088.484,+007.277,-00.2212,+00.2374,-00.5352,+09.859,-00.113,+00.162,-00.007842,-00.040992,-00.057023*66
"
1712237217.7402623,+034.341,+088.434,+003.725,-00.2245,+00.2410,-00.5247,+09.779,-00.138,+00.065,-00.007220,-00.042709,-00.064690,"$VNYMR,+034.341,+088.434,+003.725,-00.2245,+00.2410,-00.5247,+09.779,-00.138,+00.065,-00.007220,-00.042709,-00.064690*66
"
1712237217.7649262,+030.759,+088.382,+000.129,-00.2223,+00.2374,-00.5339,+09.741,-00.077,-00.075,-00.009221,-00.036578,-00.070212,"$VNYMR,+030.759,+088.382,+000.129,-00.2223,+00.2374,-00.5339,+09.741,-00.077,-00.075,-00.009221,-00.036578,-00.070212*64
"
1712237217.7925186,+027.299,+088.343,-003.345,-00.2246,+00.2374,-00.5300,+09.688,+00.015,-00.159,-00.010839,-00.019848,-00.069277,"$VNYMR,+027.299,+088.343,-003.345,-00.2246,+00.2374,-00.5300,+09.688,+00.015,-00.159,-00.010839,-00.019848,-00.069277*68
"
1712237217.8149052,+024.056,+088.326,-006.605,-00.2245,+00.2421,-00.5274,+09.636,+00.081,-00.298,-00.012231,+00.001981,-00.063603,"$VNYMR,+024.056,+088.326,-006.605,-00.2245,+00.2421,-00.5274,+09.636,+00.081,-00.298,-00.012231,+00.001981,-00.063603*6B
"
1712237217.8398542,+021.088,+088.337,-009.601,-00.2245,+00.2433,-00.5368,+09.646,+00.112,-00.272,-00.017708,+00.023964,-00.054194,"$VNYMR,+021.088,+088.337,-009.601,-00.2245,+00.2433,-00.5368,+09.646,+00.112,-00.272,-00.017708,+00.023964,-00.054194*6D
"
1712237217.8650293,+018.311,+088.378,-012.409,-00.2223,+00.2374,-00.5366,+09.680,+00.082,-00.178,-00.019946,+00.046744,-00.044549,"$VNYMR,+018.311,+088.378,-012.409,-00.2223,+00.2374,-00.5366,+09.680,+00.082,-00.178,-00.019946,+00.046744,-00.044549*6E
"
1712237217.8900208,+015.597,+088.442,-015.155,-00.2268,+00.2363,-00.5275,+09.737,+00.055,-00.086,-00.020800,+00.059014,-00.037892,"$VNYMR,+015.597,+088.442,-015.155,-00.2268,+00.2363,-00.5275,+09.737,+00.055,-00.086,-00.020800,+00.059014,-00.037892*69
"
1712237217.916969,+012.823,+088.515,-017.960,-00.2224,+00.2350,-00.5432,+09.780,-00.036,+00.029,-00.022050,+00.064490,-00.033302,"$VNYMR,+012.823,+088.515,-017.960,-00.2224,+00.2350,-00.5432,+09.780,-00.036,+00.029,-00.022050,+00.064490,-00.033302*6D
"
1712237217.939668,+009.616,+088.590,-021.199,-00.2247,+00.2327,-00.5286,+09.800,-00.114,+00.178,-00.021601,+00.063936,-00.038293,"$VNYMR,+009.616,+088.590,-021.199,-00.2247,+00.2327,-00.5286,+09.800,-00.114,+00.178,-00.021601,+00.063936,-00.038293*63
"
1712237217.9667711,+005.992,+088.644,-024.851,-00.2243,+00.2516,-00.5369,+09.871,-00.120,+00.211,-00.019939,+00.054801,-00.044227,"$VNYMR,+005.992,+088.644,-024.851,-00.2243,+00.2516,-00.5369,+09.871,-00.120,+00.211,-00.019939,+00.054801,-00.044227*69
"
1712237217.9924433,+002.048,+088.675,-028.817,-00.2221,+00.2504,-00.5367,+09.908,-00.117,+00.236,-00.018235,+00.041040,-00.050772,"$VNYMR,+002.048,+088.675,-028.817,-00.2221,+00.2504,-00.5367,+09.908,-00.117,+00.236,-00.018235,+00.041040,-00.050772*64
"
1712237218.0149157,-001.969,+088.682,-032.855,-00.2236,+00.2279,-00.5379,+09.864,-00.035,+00.175,-00.016289,+00.034220,-00.053848,"$VNYMR,-001.969,+088.682,-032.855,-00.2236,+00.2279,-00.5379,+09.864,-00.035,+00.175,-00.016289,+00.034220,-00.053848*6E
"
1712237218.0398765,-005.787,+088.675,-036.690,-00.2247,+00.2315,-00.5313,+09.835,+00.055,+00.085,-00.015412,+00.030398,-00.049820,"$VNYMR,-005.787,+088.675,-036.690,-00.2247,+00.2315,-00.5313,+09.835,+00.055,+00.085,-00.015412,+00.030398,-00.049820*60
"
1712237218.0649462,-009.341,+088.670,-040.264,-00.2248,+00.2280,-00.5459,+09.733,+00.100,-00.082,-00.015793,+00.036617,-00.045191,"$VNYMR,-009.341,+088.670,-040.264,-00.2248,+00.2280,-00.5459,+09.733,+00.100,-00.082,-00.015793,+00.036617,-00.045191*6A
"
1712237218.0897334,-012.837,+088.681,-043.779,-00.2246,+00.2339,-00.5273,+09.697,+00.117,-00.184,-00.018565,+00.047825,-00.031975,"$VNYMR,-012.837,+088.681,-043.779,-00.2246,+00.2339,-00.5273,+09.697,+00.117,-00.184,-00.018565,+00.047825,-00.031975*6D
"
1712237218.1167405,-016.819,+088.718,-047.786,-00.2266,+00.2469,-00.5356,+09.672,+00.087,-00.250,-00.019094,+00.070390,-00.022244,"$VNYMR,-016.819,+088.718,-047.786,-00.2266,+00.2469,-00.5356,+09.672,+00.087,-00.250,-00.019094,+00.070390,-00.022244*6F
"
1712237218.1399817,-021.471,+088.775,-052.464,-00.2234,+00.2409,-00.5447,+09.645,+00.048,-00.205,-00.022315,+00.090345,-00.014048,"$VNYMR,-021.471,+088.775,-052.464,-00.2234,+00.2409,-00.5447,+09.645,+00.048,-00.205,-00.022315,+00.090345,-00.014048*67
"
1712237218.1647556,-027.696,+088.846,-058.721,-00.2214,+00.2314,-00.5418,+09.744,-00.068,-00.147,-00.022133,+00.109167,-00.011653,"$VNYMR,-027.696,+088.846,-058.721,-00.2214,+00.2314,-00.5418,+09.744,-00.068,-00.147,-00.022133,+00.109167,-00.011653*63
"
1712237218.1895494,-035.391,+088.905,-066.443,-00.2270,+00.2280,-00.5287,+09.754,-00.142,-00.020,-00.023658,+00.118910,-00.016630,"$VNYMR,-035.391,+088.905,-066.443,-00.2270,+00.2280,-00.5287,+09.754,-00.142,-00.020,-00.023658,+00.118910,-00.016630*69
"
1712237218.2147498,-044.522,+088.937,-075.598,-00.2235,+00.2327,-00.5433,+09.862,-00.040,+00.111,-00.020887,+00.122397,-00.020710,"$VNYMR,-044.522,+088.937,-075.598,-00.2235,+00.2327,-00.5433,+09.862,-00.040,+00.111,-00.020887,+00.122397,-00.020710*68
"
1712237218.2398667,-053.556,+088.939,-084.659,-00.2257,+00.2363,-00.5421,+09.886,+00.104,+00.221,-00.020074,+00.112042,-00.017873,"$VNYMR,-053.556,+088.939,-084.659,-00.2257,+00.2363,-00.5421,+09.886,+00.104,+00.221,-00.020074,+00.112042,-00.017873*6B
"
1712237218.266748,-061.621,+088.926,-092.744,-00.2245,+00.2433,-00.5408,+09.950,+00.116,+00.272,-00.018910,+00.095644,-00.007001,"$VNYMR,-061.621,+088.926,-092.744,-00.2245,+00.2433,-00.5408,+09.950,+00.116,+00.272,-00.018910,+00.095644,-00.007001*6A
"
1712237218.2897358,-068.178,+088.912,-099.318,-00.2222,+00.2468,-00.5500,+09.922,+00.162,+00.291,-00.017193,+00.080487,+00.003855,"$VNYMR,-068.178,+088.912,-099.318,-00.2222,+00.2468,-00.5500,+09.922,+00.162,+00.291,-00.017193,+00.080487,+00.003855*6A
"
1712237218.3147259,-073.855,+088.902,-105.014,-00.2203,+00.2291,-00.5537,+09.874,+00.044,+00.202,-00.014949,+00.067090,+00.010948,"$VNYMR,-073.855,+088.902,-105.014,-00.2203,+00.2291,-00.5537,+09.874,+00.044,+00.202,-00.014949,+00.067090,+00.010948*6E
"
1712237218.3397076,-078.665,+088.893,-109.837,-00.2245,+00.2398,-00.5367,+09.816,-00.056,+00.095,-00.015220,+00.060935,+00.012790,"$VNYMR,-078.665,+088.893,-109.837,-00.2245,+00.2398,-00.5367,+09.816,-00.056,+00.095,-00.015220,+00.060935,+00.012790*6D
"
1712237218.3646255,-083.315,+088.872,-114.498,-00.2191,+00.2314,-00.5497,+09.750,-00.081,-00.030,-00.012812,+00.066483,+00.006917,"$VNYMR,-083.315,+088.872,-114.498,-00.2191,+00.2314,-00.5497,+09.750,-00.081,-00.030,-00.012812,+00.066483,+00.006917*67
"
1712237218.38952,-088.214,+088.836,-119.406,-00.2191,+00.2326,-00.5417,+09.709,-00.010,-00.117,-00.013626,+00.078502,+00.006205,"$VNYMR,-088.214,+088.836,-119.406,-00.2191,+00.2326,-00.5417,+09.709,-00.010,-00.117,-00.013626,+00.078502,+00.006205*68
"
1712237218.4145577,-093.608,+088.783,-124.810,-00.2233,+00.2445,-00.5514,+09.689,+00.080,-00.181,-00.013581,+00.093199,+00.011410,"$VNYMR,-093.608,+088.783,-124.810,-00.2233,+00.2445,-00.5514,+09.689,+00.080,-00.181,-00.013581,+00.093199,+00.011410*64
"
1712237218.443764,-099.582,+088.716,-130.792,-00.2179,+00.2373,-00.5564,+09.678,+00.095,-00.162,-00.014502,+00.107559,+00.020002,"$VNYMR,-099.582,+088.716,-130.792,-00.2179,+00.2373,-00.5564,+09.678,+00.095,-00.162,-00.014502,+00.107559,+00.020002*61
"
1712237218.4645762,-105.876,+088.631,-137.098,-00.2191,+00.2338,-00.5551,+09.813,+00.105,-00.061,-00.015805,+00.119071,+00.031170,"$VNYMR,-105.876,+088.631,-137.098,-00.2191,+00.2338,-00.5551,+09.813,+00.105,-00.061,-00.015805,+00.119071,+00.031170*64
"
1712237218.492189,-111.938,+088.534,-143.174,-00.2192,+00.2279,-00.5430,+09.810,+00.072,+00.076,-00.014838,+00.120359,+00.038167,"$VNYMR,-111.938,+088.534,-143.174,-00.2192,+00.2279,-00.5430,+09.810,+00.072,+00.076,-00.014838,+00.120359,+00.038167*6C
"
1712237218.5146537,-117.425,+088.427,-148.674,-00.2168,+00.2373,-00.5603,+09.920,+00.010,+00.204,-00.015227,+00.115410,+00.042046,"$VNYMR,-117.425,+088.427,-148.674,-00.2168,+00.2373,-00.5603,+09.920,+00.010,+00.204,-00.015227,+00.115410,+00.042046*6F
"
1712237218.5424302,-122.022,+088.327,-153.278,-00.2192,+00.2290,-00.5537,+09.873,-00.034,+00.312,-00.011854,+00.102702,+00.043439,"$VNYMR,-122.022,+088.327,-153.278,-00.2192,+00.2290,-00.5537,+09.873,-00.034,+00.312,-00.011854,+00.102702,+00.043439*62
"
1712237218.5647738,-125.722,+088.237,-156.983,-00.2200,+00.2421,-00.5552,+09.931,-00.082,+00.357,-00.010397,+00.082309,+00.041363,"$VNYMR,-125.722,+088.237,-156.983,-00.2200,+00.2421,-00.5552,+09.931,-00.082,+00.357,-00.010397,+00.082309,+00.041363*6D
"
1712237218.5922706,-128.610,+088.166,-159.871,-00.2155,+00.2455,-00.5630,+09.911,-00.038,+00.320,-00.005690,+00.064347,+00.037241,"$VNYMR,-128.610,+088.166,-159.871,-00.2155,+00.2455,-00.5630,+09.911,-00.038,+00.320,-00.005690,+00.064347,+00.037241*64
"
1712237218.6146626,-130.908,+088.111,-162.168,-00.2167,+00.2420,-00.5630,+09.921,-00.028,+00.293,-00.004308,+00.047416,+00.034680,"$VNYMR,-130.908,+088.111,-162.168,-00.2167,+00.2420,-00.5630,+09.921,-00.028,+00.293,-00.004308,+00.047416,+00.034680*67
"
1712237218.6425285,-132.879,+088.073,-164.134,-00.2178,+00.2432,-00.5524,+09.859,-00.010,+00.151,-00.002524,+00.037603,+00.033781,"$VNYMR,-132.879,+088.073,-164.134,-00.2178,+00.2432,-00.5524,+09.859,-00.010,+00.151,-00.002524,+00.037603,+00.033781*63
"
1712237218.664668,-134.833,+088.036,-166.079,-00.2157,+00.2361,-00.5642,+09.786,+00.035,+00.047,-00.002576,+00.037597,+00.037955,"$VNYMR,-134.833,+088.036,-166.079,-00.2157,+00.2361,-00.5642,+09.786,+00.035,+00.047,-00.002576,+00.037597,+00.037955*6F
"
1712237218.6897683,-136.972,+087.998,-168.211,-00.2202,+00.2350,-00.5551,+09.752,+00.103,-00.046,-00.002488,+00.042947,+00.045603,"$VNYMR,-136.972,+087.998,-168.211,-00.2202,+00.2350,-00.5551,+09.752,+00.103,-00.046,-00.002488,+00.042947,+00.045603*69
"
1712237218.714799,-139.391,+087.943,-170.623,-00.2166,+00.2455,-00.5577,+09.724,+00.079,-00.084,-00.003531,+00.051047,+00.052855,"$VNYMR,-139.391,+087.943,-170.623,-00.2166,+00.2455,-00.5577,+09.724,+00.079,-00.084,-00.003531,+00.051047,+00.052855*6D
"
1712237218.7393346,-142.043,+087.868,-173.275,-00.2123,+00.2431,-00.5708,+09.744,+00.049,-00.059,-00.005202,+00.063546,+00.060586,"$VNYMR,-142.043,+087.868,-173.275,-00.2123,+00.2431,-00.5708,+09.744,+00.049,-00.059,-00.005202,+00.063546,+00.060586*6B
"
1712237218.7645226,-144.678,+087.781,-175.907,-00.2146,+00.2384,-00.5682,+09.761,+00.009,+00.010,-00.004218,+00.069381,+00.064342,"$VNYMR,-144.678,+087.781,-175.907,-00.2146,+00.2384,-00.5682,+09.761,+00.009,+00.010,-00.004218,+00.069381,+00.064342*65
"
1712237218.7893717,-147.174,+087.688,-178.396,-00.2112,+00.2384,-00.5534,+09.859,-00.036,+00.116,-00.002822,+00.067283,+00.063514,"$VNYMR,-147.174,+087.688,-178.396,-00.2112,+00.2384,-00.5534,+09.859,-00.036,+00.116,-00.002822,+00.067283,+00.063514*66
"
1712237218.8144588,-149.401,+087.598,+179.386,-00.2112,+00.2384,-00.5667,+09.905,-00.083,+00.267,-00.001836,+00.059041,+00.060560,"$VNYMR,-149.401,+087.598,+179.386,-00.2112,+00.2384,-00.5667,+09.905,-00.083,+00.267,-00.001836,+00.059041,+00.060560*6A
"
1712237218.839399,-151.360,+087.525,+177.438,-00.2112,+00.2384,-00.5654,+09.920,-00.101,+00.348,+00.000560,+00.042582,+00.056167,"$VNYMR,-151.360,+087.525,+177.438,-00.2112,+00.2384,-00.5654,+09.920,-00.101,+00.348,+00.000560,+00.042582,+00.056167*66
"
1712237218.864625,-153.088,+087.480,+175.725,-00.2119,+00.2597,-00.5670,+09.962,-00.038,+00.395,+00.003767,+00.022070,+00.051320,"$VNYMR,-153.088,+087.480,+175.725,-00.2119,+00.2597,-00.5670,+09.962,-00.038,+00.395,+00.003767,+00.022070,+00.051320*68
"
1712237218.8912988,-154.715,+087.463,+174.117,-00.2089,+00.2466,-00.5720,+09.938,-00.021,+00.388,+00.007241,-00.000820,+00.048800,"$VNYMR,-154.715,+087.463,+174.117,-00.2089,+00.2466,-00.5720,+09.938,-00.021,+00.388,+00.007241,-00.000820,+00.048800*60
"
1712237218.9175887,-156.361,+087.475,+172.492,-00.2090,+00.2395,-00.5693,+09.914,+00.005,+00.282,+00.006745,-00.019414,+00.049285,"$VNYMR,-156.361,+087.475,+172.492,-00.2090,+00.2395,-00.5693,+09.914,+00.005,+00.282,+00.006745,-00.019414,+00.049285*66
"
1712237218.9401069,-158.147,+087.506,+170.729,-00.2124,+00.2372,-00.5587,+09.907,+00.005,+00.171,+00.008402,-00.033343,+00.050657,"$VNYMR,-158.147,+087.506,+170.729,-00.2124,+00.2372,-00.5587,+09.907,+00.005,+00.171,+00.008402,-00.033343,+00.050657*66
"
1712237218.9665487,-160.111,+087.546,+168.786,-00.2090,+00.2395,-00.5706,+09.813,-00.011,+00.062,+00.008357,-00.036164,+00.054752,"$VNYMR,-160.111,+087.546,+168.786,-00.2090,+00.2395,-00.5706,+09.813,-00.011,+00.062,+00.008357,-00.036164,+00.054752*6B
"
1712237218.991746,-162.193,+087.575,+166.723,-00.2110,+00.2514,-00.5682,+09.778,-00.017,-00.086,+00.007829,-00.031105,+00.055805,"$VNYMR,-162.193,+087.575,+166.723,-00.2110,+00.2514,-00.5682,+09.778,-00.017,-00.086,+00.007829,-00.031105,+00.055805*60
"
1712237219.0146527,-164.290,+087.589,+164.646,-00.2109,+00.2561,-00.5629,+09.715,-00.023,-00.098,+00.008431,-00.021002,+00.055813,"$VNYMR,-164.290,+087.589,+164.646,-00.2109,+00.2561,-00.5629,+09.715,-00.023,-00.098,+00.008431,-00.021002,+00.055813*67
"
1712237219.0419827,-166.285,+087.588,+162.669,-00.2076,+00.2525,-00.5694,+09.754,-00.081,-00.051,+00.007547,-00.009651,+00.055116,"$VNYMR,-166.285,+087.588,+162.669,-00.2076,+00.2525,-00.5694,+09.754,-00.081,-00.051,+00.007547,-00.009651,+00.055116*65
"
1712237219.0647771,-168.061,+087.571,+160.907,-00.2067,+00.2454,-00.5679,+09.778,-00.096,+00.004,+00.006060,-00.005643,+00.051040,"$VNYMR,-168.061,+087.571,+160.907,-00.2067,+00.2454,-00.5679,+09.778,-00.096,+00.004,+00.006060,-00.005643,+00.051040*62
"
1712237219.0893164,-169.715,+087.555,+159.270,-00.2089,+00.2454,-00.5533,+09.826,-00.065,+00.126,+00.007755,-00.006949,+00.048209,"$VNYMR,-169.715,+087.555,+159.270,-00.2089,+00.2454,-00.5533,+09.826,-00.065,+00.126,+00.007755,-00.006949,+00.048209*65
"
1712237219.1165047,-171.296,+087.548,+157.706,-00.2078,+00.2454,-00.5693,+09.920,-00.069,+00.246,+00.008791,-00.016887,+00.044817,"$VNYMR,-171.296,+087.548,+157.706,-00.2078,+00.2454,-00.5693,+09.920,-00.069,+00.246,+00.008791,-00.016887,+00.044817*61
"
1712237219.1398041,-172.952,+087.558,+156.066,-00.2089,+00.2466,-00.5587,+09.936,-00.055,+00.379,+00.011182,-00.034931,+00.041475,"$VNYMR,-172.952,+087.558,+156.066,-00.2089,+00.2466,-00.5587,+09.936,-00.055,+00.379,+00.011182,-00.034931,+00.041475*61
"
1712237219.1647863,-174.883,+087.596,+154.155,-00.2120,+00.2585,-00.5590,+09.959,-00.036,+00.389,+00.012253,-00.056672,+00.040186,"$VNYMR,-174.883,+087.596,+154.155,-00.2120,+00.2585,-00.5590,+09.959,-00.036,+00.389,+00.012253,-00.056672,+00.040186*68
"
1712237219.191828,-177.145,+087.658,+151.915,-00.2109,+00.2537,-00.5695,+09.894,-00.040,+00.362,+00.014387,-00.078369,+00.037954,"$VNYMR,-177.145,+087.658,+151.915,-00.2109,+00.2537,-00.5695,+09.894,-00.040,+00.362,+00.014387,-00.078369,+00.037954*6A
"
1712237219.2146833,-179.801,+087.741,+149.280,-00.2131,+00.2573,-00.5657,+09.888,-00.072,+00.257,+00.015754,-00.093353,+00.037087,"$VNYMR,-179.801,+087.741,+149.280,-00.2131,+00.2573,-00.5657,+09.888,-00.072,+00.257,+00.015754,-00.093353,+00.037087*64
"
1712237219.2395387,+177.184,+087.839,+146.288,-00.2133,+00.2478,-00.5496,+09.823,-00.097,+00.102,+00.016005,-00.099866,+00.031688,"$VNYMR,+177.184,+087.839,+146.288,-00.2133,+00.2478,-00.5496,+09.823,-00.097,+00.102,+00.016005,-00.099866,+00.031688*69
"
1712237219.2647383,+173.992,+087.936,+143.120,-00.2067,+00.2430,-00.5599,+09.775,-00.135,-00.016,+00.014867,-00.099235,+00.025749,"$VNYMR,+173.992,+087.936,+143.120,-00.2067,+00.2430,-00.5599,+09.775,-00.135,-00.016,+00.014867,-00.099235,+00.025749*66
"
1712237219.2924526,+170.847,+088.025,+139.993,-00.2131,+00.2549,-00.5550,+09.708,-00.104,-00.115,+00.013076,-00.093449,+00.019724,"$VNYMR,+170.847,+088.025,+139.993,-00.2131,+00.2549,-00.5550,+09.708,-00.104,-00.115,+00.013076,-00.093449,+00.019724*6B
"
1712237219.3148043,+167.923,+088.099,+137.087,-00.2097,+00.2608,-00.5576,+09.713,-00.100,-00.141,+00.012887,-00.077165,+00.016525,"$VNYMR,+167.923,+088.099,+137.087,-00.2097,+00.2608,-00.5576,+09.713,-00.100,-00.141,+00.012887,-00.077165,+00.016525*61
"
1712237219.3424327,+165.300,+088.157,+134.478,-00.2109,+00.2537,-00.5629,+09.727,-00.030,-00.095,+00.010594,-00.066587,+00.015533,"$VNYMR,+165.300,+088.157,+134.478,-00.2109,+00.2537,-00.5629,+09.727,-00.030,-00.095,+00.010594,-00.066587,+00.015533*60
"
1712237219.364771,+162.781,+088.203,+131.971,-00.2087,+00.2560,-00.5628,+09.814,+00.004,+00.005,+00.008648,-00.057414,+00.015828,"$VNYMR,+162.781,+088.203,+131.971,-00.2087,+00.2560,-00.5628,+09.814,+00.004,+00.005,+00.008648,-00.057414,+00.015828*69
"
1712237219.3925927,+160.198,+088.241,+129.397,-00.2119,+00.2596,-00.5456,+09.836,-00.022,+00.124,+00.009348,-00.062343,+00.018099,"$VNYMR,+160.198,+088.241,+129.397,-00.2119,+00.2596,-00.5456,+09.836,-00.022,+00.124,+00.009348,-00.062343,+00.018099*64
"
1712237219.4168653,+157.389,+088.280,+126.597,-00.2122,+00.2455,-00.5575,+09.887,-00.056,+00.254,+00.008187,-00.067881,+00.017078,"$VNYMR,+157.389,+088.280,+126.597,-00.2122,+00.2455,-00.5575,+09.887,-00.056,+00.254,+00.008187,-00.067881,+00.017078*6D
"
1712237219.4433188,+154.049,+088.326,+123.267,-00.2120,+00.2585,-00.5510,+09.929,-00.103,+00.324,+00.008456,-00.082791,+00.013440,"$VNYMR,+154.049,+088.326,+123.267,-00.2120,+00.2585,-00.5510,+09.929,-00.103,+00.324,+00.008456,-00.082791,+00.013440*69
"
1712237219.466935,+149.872,+088.386,+119.103,-00.2130,+00.2620,-00.5497,+09.911,-00.151,+00.306,+00.009799,-00.099848,+00.005933,"$VNYMR,+149.872,+088.386,+119.103,-00.2130,+00.2620,-00.5497,+09.911,-00.151,+00.306,+00.009799,-00.099848,+00.005933*66
"
1712237219.4894276,+144.951,+088.460,+114.197,-00.2120,+00.2573,-00.5536,+09.882,-00.191,+00.214,+00.011280,-00.113101,-00.005678,"$VNYMR,+144.951,+088.460,+114.197,-00.2120,+00.2573,-00.5536,+09.882,-00.191,+00.214,+00.011280,-00.113101,-00.005678*6A
"
1712237219.5143383,+139.170,+088.540,+108.432,-00.2111,+00.2478,-00.5521,+09.839,-00.177,+00.122,+00.011763,-00.122004,-00.016737,"$VNYMR,+139.170,+088.540,+108.432,-00.2111,+00.2478,-00.5521,+09.839,-00.177,+00.122,+00.011763,-00.122004,-00.016737*69
"
1712237219.5410101,+132.700,+088.620,+101.979,-00.2143,+00.2502,-00.5390,+09.792,-00.148,+00.044,+00.012543,-00.121501,-00.026738,"$VNYMR,+132.700,+088.620,+101.979,-00.2143,+00.2502,-00.5390,+09.792,-00.148,+00.044,+00.012543,-00.121501,-00.026738*65
"
1712237219.5644758,+125.867,+088.688,+095.160,-00.2132,+00.2502,-00.5483,+09.753,-00.054,-00.050,+00.010143,-00.115471,-00.030399,"$VNYMR,+125.867,+088.688,+095.160,-00.2132,+00.2502,-00.5483,+09.753,-00.054,-00.050,+00.010143,-00.115471,-00.030399*6D
"
1712237219.5896337,+119.128,+088.737,+088.431,-00.2144,+00.2490,-00.5403,+09.693,+00.016,-00.153,+00.007053,-00.102415,-00.027741,"$VNYMR,+119.128,+088.737,+088.431,-00.2144,+00.2490,-00.5403,+09.693,+00.016,-00.153,+00.007053,-00.102415,-00.027741*61
"
1712237219.6143312,+112.686,+088.764,+081.995,-00.2153,+00.2597,-00.5405,+09.728,+00.018,-00.192,+00.005630,-00.087949,-00.022968,"$VNYMR,+112.686,+088.764,+081.995,-00.2153,+00.2597,-00.5405,+09.728,+00.018,-00.192,+00.005630,-00.087949,-00.022968*68
"
1712237219.639115,+107.399,+088.776,+076.708,-00.2153,+00.2550,-00.5551,+09.686,-00.004,-00.144,+00.002068,-00.072391,-00.019642,"$VNYMR,+107.399,+088.776,+076.708,-00.2153,+00.2550,-00.5551,+09.686,-00.004,-00.144,+00.002068,-00.072391,-00.019642*6E
"
1712237219.6643496,+102.909,+088.779,+072.216,-00.2132,+00.2502,-00.5496,+09.784,-00.051,-00.048,+00.001482,-00.060983,-00.017813,"$VNYMR,+102.909,+088.779,+072.216,-00.2132,+00.2502,-00.5496,+09.784,-00.051,-00.048,+00.001482,-00.060983,-00.017813*60
"
1712237219.6919868,+098.804,+088.781,+068.107,-00.2177,+00.2467,-00.5311,+09.808,-00.111,+00.049,-00.000602,-00.059091,-00.021826,"$VNYMR,+098.804,+088.781,+068.107,-00.2177,+00.2467,-00.5311,+09.808,-00.111,+00.049,-00.000602,-00.059091,-00.021826*6D
"
1712237219.7167652,+094.459,+088.782,+063.757,-00.2155,+00.2467,-00.5417,+09.856,-00.170,+00.135,-00.000668,-00.061053,-00.030012,"$VNYMR,+094.459,+088.782,+063.757,-00.2155,+00.2467,-00.5417,+09.856,-00.170,+00.135,-00.000668,-00.061053,-00.030012*6F
"
1712237219.739212,+089.513,+088.786,+058.807,-00.2166,+00.2455,-00.5324,+09.889,-00.189,+00.214,+00.002015,-00.070016,-00.039379,"$VNYMR,+089.513,+088.786,+058.807,-00.2166,+00.2455,-00.5324,+09.889,-00.189,+00.214,+00.002015,-00.070016,-00.039379*66
"
1712237219.7643642,+083.414,+088.781,+052.707,-00.2209,+00.2539,-00.5354,+09.868,-00.143,+00.242,+00.001628,-00.076139,-00.049381,"$VNYMR,+083.414,+088.781,+052.707,-00.2209,+00.2539,-00.5354,+09.868,-00.143,+00.242,+00.001628,-00.076139,-00.049381*65
"
1712237219.791974,+076.687,+088.761,+045.978,-00.2154,+00.2514,-00.5404,+09.859,-00.099,+00.190,+00.002925,-00.088602,-00.055809,"$VNYMR,+076.687,+088.761,+045.978,-00.2154,+00.2514,-00.5404,+09.859,-00.099,+00.190,+00.002925,-00.088602,-00.055809*6E
"
1712237219.8143873,+069.881,+088.725,+039.172,-00.2166,+00.2491,-00.5391,+09.825,-00.049,+00.102,+00.002324,-00.091431,-00.058349,"$VNYMR,+069.881,+088.725,+039.172,-00.2166,+00.2491,-00.5391,+09.825,-00.049,+00.102,+00.002324,-00.091431,-00.058349*69
"
1712237219.8394265,+063.479,+088.670,+032.767,-00.2211,+00.2444,-00.5273,+09.762,+00.001,-00.007,+00.000214,-00.089020,-00.057607,"$VNYMR,+063.479,+088.670,+032.767,-00.2211,+00.2444,-00.5273,+09.762,+00.001,-00.007,+00.000214,-00.089020,-00.057607*6F
"
1712237219.8645213,+058.069,+088.610,+027.353,-00.2188,+00.2468,-00.5405,+09.706,+00.000,-00.100,-00.000592,-00.079092,-00.052740,"$VNYMR,+058.069,+088.610,+027.353,-00.2188,+00.2468,-00.5405,+09.706,+00.000,-00.100,-00.000592,-00.079092,-00.052740*62
"
1712237219.891843,+053.687,+088.554,+022.965,-00.2190,+00.2409,-00.5338,+09.689,-00.012,-00.220,-00.004468,-00.059032,-00.048992,"$VNYMR,+053.687,+088.554,+022.965,-00.2190,+00.2409,-00.5338,+09.689,-00.012,-00.220,-00.004468,-00.059032,-00.048992*61
"
1712237219.9153514,+050.184,+088.518,+019.451,-00.2209,+00.2551,-00.5354,+09.631,-00.043,-00.240,-00.007786,-00.038798,-00.047139,"$VNYMR,+050.184,+088.518,+019.451,-00.2209,+00.2551,-00.5354,+09.631,-00.043,-00.240,-00.007786,-00.038798,-00.047139*6E
"
1712237219.9422996,+047.143,+088.504,+016.394,-00.2218,+00.2634,-00.5382,+09.711,-00.087,-00.215,-00.010076,-00.018911,-00.049523,"$VNYMR,+047.143,+088.504,+016.394,-00.2218,+00.2634,-00.5382,+09.711,-00.087,-00.215,-00.010076,-00.018911,-00.049523*6D
"
1712237219.9653332,+044.252,+088.509,+013.483,-00.2190,+00.2409,-00.5364,+09.701,-00.099,-00.105,-00.012623,-00.005332,-00.052954,"$VNYMR,+044.252,+088.509,+013.483,-00.2190,+00.2409,-00.5364,+09.701,-00.099,-00.105,-00.012623,-00.005332,-00.052954*6A
"
1712237219.989088,+041.198,+088.525,+010.408,-00.2234,+00.2421,-00.5260,+09.792,-00.083,-00.006,-00.011882,+00.002161,-00.057158,"$VNYMR,+041.198,+088.525,+010.408,-00.2234,+00.2421,-00.5260,+09.792,-00.083,-00.006,-00.011882,+00.002161,-00.057158*67
"
1712237220.0153189,+037.939,+088.543,+007.130,-00.2213,+00.2350,-00.5325,+09.834,-00.051,+00.108,-00.012005,+00.001904,-00.059818,"$VNYMR,+037.939,+088.543,+007.130,-00.2213,+00.2350,-00.5325,+09.834,-00.051,+00.108,-00.012005,+00.001904,-00.059818*63
"
1712237220.0418718,+034.483,+088.547,+003.651,-00.2234,+00.2398,-00.5327,+09.863,-00.011,+00.215,-00.011511,-00.005487,-00.059969,"$VNYMR,+034.483,+088.547,+003.651,-00.2234,+00.2398,-00.5327,+09.863,-00.011,+00.215,-00.011511,-00.005487,-00.059969*66
"
1712237220.0652688,+031.034,+088.532,+000.182,-00.2243,+00.2492,-00.5355,+09.894,-00.016,+00.203,-00.012175,-00.015197,-00.058589,"$VNYMR,+031.034,+088.532,+000.182,-00.2243,+00.2492,-00.5355,+09.894,-00.016,+00.203,-00.012175,-00.015197,-00.058589*60
"
1712237220.093013,+027.688,+088.501,-003.183,-00.2199,+00.2480,-00.5352,+09.836,-00.015,+00.138,-00.011813,-00.024324,-00.059311,"$VNYMR,+027.688,+088.501,-003.183,-00.2199,+00.2480,-00.5352,+09.836,-00.015,+00.138,-00.011813,-00.024324,-00.059311*66
"
1712237220.1153798,+024.630,+088.458,-006.258,-00.2235,+00.2374,-00.5353,+09.784,-00.027,+00.027,-00.012271,-00.024712,-00.058897,"$VNYMR,+024.630,+088.458,-006.258,-00.2235,+00.2374,-00.5353,+09.784,-00.027,+00.027,-00.012271,-00.024712,-00.058897*63
"
1712237220.1392968,+021.744,+088.418,-009.161,-00.2235,+00.2350,-00.5259,+09.701,-00.040,-00.115,-00.012692,-00.015453,-00.058018,"$VNYMR,+021.744,+088.418,-009.161,-00.2235,+00.2350,-00.5259,+09.701,-00.040,-00.115,-00.012692,-00.015453,-00.058018*63
"
1712237220.1653256,+018.889,+088.392,-012.037,-00.2224,+00.2362,-00.5312,+09.672,-00.058,-00.177,-00.014314,-00.002190,-00.057434,"$VNYMR,+018.889,+088.392,-012.037,-00.2224,+00.2362,-00.5312,+09.672,-00.058,-00.177,-00.014314,-00.002190,-00.057434*69
"
1712237220.189416,+015.934,+088.387,-015.013,-00.2246,+00.2339,-00.5287,+09.638,-00.032,-00.269,-00.016668,+00.019762,-00.056749,"$VNYMR,+015.934,+088.387,-015.013,-00.2246,+00.2339,-00.5287,+09.638,-00.032,-00.269,-00.016668,+00.019762,-00.056749*6C
"
1712237220.2153978,+012.742,+088.409,-018.229,-00.2244,+00.2457,-00.5314,+09.653,+00.005,-00.259,-00.018839,+00.040535,-00.053951,"$VNYMR,+012.742,+088.409,-018.229,-00.2244,+00.2457,-00.5314,+09.653,+00.005,-00.259,-00.018839,+00.040535,-00.053951*63
"
1712237220.2401574,+009.271,+088.454,-021.724,-00.2222,+00.2433,-00.5353,+09.685,+00.022,-00.165,-00.020463,+00.060058,-00.050046,"$VNYMR,+009.271,+088.454,-021.724,-00.2222,+00.2433,-00.5353,+09.685,+00.022,-00.165,-00.020463,+00.060058,-00.050046*6D
"
1712237220.2676537,+005.545,+088.517,-025.480,-00.2222,+00.2433,-00.5393,+09.739,+00.067,-00.038,-00.021856,+00.070965,-00.044251,"$VNYMR,+005.545,+088.517,-025.480,-00.2222,+00.2433,-00.5393,+09.739,+00.067,-00.038,-00.021856,+00.070965,-00.044251*60
"
1712237220.289618,+001.663,+088.583,-029.397,-00.2247,+00.2327,-00.5313,+09.803,+00.030,+00.096,-00.022588,+00.071977,-00.036960,"$VNYMR,+001.663,+088.583,-029.397,-00.2247,+00.2327,-00.5313,+09.803,+00.030,+00.096,-00.022588,+00.071977,-00.036960*6F
"
1712237220.3156066,-002.368,+088.646,-033.454,-00.2247,+00.2291,-00.5433,+09.868,+00.003,+00.122,-00.021557,+00.069545,-00.033644,"$VNYMR,-002.368,+088.646,-033.454,-00.2247,+00.2291,-00.5433,+09.868,+00.003,+00.122,-00.021557,+00.069545,-00.033644*6E
"
1712237220.339125,-006.463,+088.696,-037.575,-00.2225,+00.2291,-00.5285,+09.545,-00.061,-00.024,-00.022198,+00.064976,-00.035495,"$VNYMR,-006.463,+088.696,-037.575,-00.2225,+00.2291,-00.5285,+09.545,-00.061,-00.024,-00.022198,+00.064976,-00.035495*6E
"
1712237220.3653796,-000.326,+088.263,-034.861,-00.2266,+00.2469,-00.5156,-19.679,-40.886,-143.685,-06.326948,-00.046931,-00.119262,"$VNYMR,-000.326,+088.263,-034.861,-00.2266,+00.2469,-00.5156,-19.679,-40.886,-143.685,-06.326948,-00.046931,-00.119262*55
"
1712237220.390304,-116.091,+087.302,-154.406,-00.2256,+00.2433,-00.5341,+42.529,+00.587,+30.125,-03.742798,+02.807488,-00.008695,"$VNYMR,-116.091,+087.302,-154.406,-00.2256,+00.2433,-00.5341,+42.529,+00.587,+30.125,-03.742798,+02.807488,-00.008695*62
"
1712237220.4180257,-129.844,+084.747,-173.440,-00.2221,+00.2480,-00.5340,+13.270,-10.183,+07.952,-03.869991,+01.230359,+00.178425,"$VNYMR,-129.844,+084.747,-173.440,-00.2221,+00.2480,-00.5340,+13.270,-10.183,+07.952,-03.869991,+01.230359,+00.178425*6C
"
1712237220.4631784,-132.262,+083.371,+178.812,-00.2209,+00.2563,-00.5087,+05.111,-02.382,-01.370,-03.614210,+00.755736,-00.070022,"$VNYMR,-132.262,+083.371,+178.812,-00.2209,+00.2563,-00.5087,+05.111,-02.382,-01.370,-03.614210,+00.755736,-00.070022*6F
"
1712237220.4654999,-130.500,+082.816,+175.131,-00.2198,+00.2539,-00.5006,+02.725,-00.399,+04.382,-03.843243,+00.251405,-00.120440,"$VNYMR,-130.500,+082.816,+175.131,-00.2198,+00.2539,-00.5006,+02.725,-00.399,+04.382,-03.843243,+00.251405,-00.120440*61
"
1712237220.4903562,-128.130,+082.693,+172.038,-00.2241,+00.2599,-00.4729,+04.133,-00.670,+07.880,-03.739686,+00.030455,-00.272831,"$VNYMR,-128.130,+082.693,+172.038,-00.2241,+00.2599,-00.4729,+04.133,-00.670,+07.880,-03.739686,+00.030455,-00.272831*6B
"
1712237220.5150197,-123.802,+083.127,+171.131,-00.2263,+00.2622,-00.4503,+04.376,-02.199,+07.451,-03.561895,-00.472627,-00.522268,"$VNYMR,-123.802,+083.127,+171.131,-00.2263,+00.2622,-00.4503,+04.376,-02.199,+07.451,-03.561895,-00.472627,-00.522268*66
"
1712237220.542744,-116.573,+084.070,+173.409,-00.2265,+00.2528,-00.4276,+01.411,-00.202,+05.276,-03.373762,-00.592994,-00.718855,"$VNYMR,-116.573,+084.070,+173.409,-00.2265,+00.2528,-00.4276,+01.411,-00.202,+05.276,-03.373762,-00.592994,-00.718855*6D
"
1712237220.5653908,-104.673,+085.097,-179.495,-00.2292,+00.2256,-00.4007,+01.041,-00.462,+04.351,-03.293160,-00.736266,-00.884154,"$VNYMR,-104.673,+085.097,-179.495,-00.2292,+00.2256,-00.4007,+01.041,-00.462,+04.351,-03.293160,-00.736266,-00.884154*69
"
1712237220.59042,-083.824,+086.118,-163.336,-00.2362,+00.2080,-00.3648,+01.647,-01.838,+05.640,-03.195348,-00.907979,-01.078490,"$VNYMR,-083.824,+086.118,-163.336,-00.2362,+00.2080,-00.3648,+01.647,-01.838,+05.640,-03.195348,-00.907979,-01.078490*63
"
1712237220.6155715,-048.510,+086.418,-132.536,-00.2379,+00.1820,-00.3446,+01.478,-02.324,+06.350,-03.042647,-01.075534,-01.342359,"$VNYMR,-048.510,+086.418,-132.536,-00.2379,+00.1820,-00.3446,+01.478,-02.324,+06.350,-03.042647,-01.075534,-01.342359*63
"
1712237220.6402767,-013.901,+085.234,-102.245,-00.2393,+00.1643,-00.3137,+01.551,-01.189,+05.414,-02.894819,-01.237576,-01.605259,"$VNYMR,-013.901,+085.234,-102.245,-00.2393,+00.1643,-00.3137,+01.551,-01.189,+05.414,-02.894819,-01.237576,-01.605259*6C
"
1712237220.6669016,+006.510,+082.823,-085.985,-00.2399,+00.1324,-00.2867,+04.070,-02.595,+06.090,-02.805562,-01.419418,-01.877827,"$VNYMR,+006.510,+082.823,-085.985,-00.2399,+00.1324,-00.2867,+04.070,-02.595,+06.090,-02.805562,-01.419418,-01.877827*63
"
1712237220.690102,+019.816,+079.557,-076.766,-00.2339,+00.0992,-00.2713,+11.245,-00.447,+15.210,-02.695194,-01.981510,-02.120846,"$VNYMR,+019.816,+079.557,-076.766,-00.2339,+00.0992,-00.2713,+11.245,-00.447,+15.210,-02.695194,-01.981510,-02.120846*67
"
1712237220.7176194,+031.207,+075.405,-069.388,-00.2248,+00.0576,-00.2356,+43.885,-07.005,+11.638,-02.329282,-02.625637,-02.237532,"$VNYMR,+031.207,+075.405,-069.388,-00.2248,+00.0576,-00.2356,+43.885,-07.005,+11.638,-02.329282,-02.625637,-02.237532*64
"
1712237220.740547,+042.615,+072.379,-061.346,-00.2085,+00.0372,-00.1932,+29.317,+17.906,-12.148,-01.528474,-02.163527,-00.288099,"$VNYMR,+042.615,+072.379,-061.346,-00.2085,+00.0372,-00.1932,+29.317,+17.906,-12.148,-01.528474,-02.163527,-00.288099*66
"
1712237220.7674484,+048.785,+070.937,-059.380,-00.1926,-00.0010,-00.1906,+10.046,+04.683,-19.944,-03.395989,-02.456727,-00.087472,"$VNYMR,+048.785,+070.937,-059.380,-00.1926,-00.0010,-00.1906,+10.046,+04.683,-19.944,-03.395989,-02.456727,-00.087472*60
"
1712237220.7907784,+056.894,+069.760,-056.452,-00.1775,-00.0190,-00.1589,+01.939,+01.710,-00.818,-03.140759,-01.577883,+00.360279,"$VNYMR,+056.894,+069.760,-056.452,-00.1775,-00.0190,-00.1589,+01.939,+01.710,-00.818,-03.140759,-01.577883,+00.360279*6E
"
1712237220.818205,+061.493,+069.217,-056.352,-00.1677,-00.0322,-00.1502,-00.408,+00.783,+03.346,-02.892406,-01.131456,+00.366163,"$VNYMR,+061.493,+069.217,-056.352,-00.1677,-00.0322,-00.1502,-00.408,+00.783,+03.346,-02.892406,-01.131456,+00.366163*6C
"
1712237220.8423533,+065.906,+068.812,-056.375,-00.1526,-00.0538,-00.1505,+00.644,+02.318,-01.230,-02.879886,-00.939845,+00.372961,"$VNYMR,+065.906,+068.812,-056.375,-00.1526,-00.0538,-00.1505,+00.644,+02.318,-01.230,-02.879886,-00.939845,+00.372961*62
"
1712237220.8675675,+069.295,+068.713,-057.431,-00.1509,-00.0774,-00.1515,-00.147,+02.048,-07.902,-02.953484,-00.581232,+00.423013,"$VNYMR,+069.295,+068.713,-057.431,-00.1509,-00.0774,-00.1515,-00.147,+02.048,-07.902,-02.953484,-00.581232,+00.423013*64
"
1712237220.8923936,+071.122,+069.118,-059.936,-00.1490,-00.0964,-00.1458,+00.725,+02.405,-06.539,-02.938028,-00.126327,+00.496911,"$VNYMR,+071.122,+069.118,-059.936,-00.1490,-00.0964,-00.1458,+00.725,+02.405,-06.539,-02.938028,-00.126327,+00.496911*66
"
1712237220.9182878,+072.016,+069.829,-063.321,-00.1516,-00.1164,-00.1657,+00.349,+00.073,+00.222,-02.933184,+00.147364,+00.585475,"$VNYMR,+072.016,+069.829,-063.321,-00.1516,-00.1164,-00.1657,+00.349,+00.073,+00.222,-02.933184,+00.147364,+00.585475*64
"
1712237220.9436965,+072.034,+070.818,-067.502,-00.1552,-00.1282,-00.1671,+00.658,+00.870,-02.675,-02.932978,+00.391418,+00.656896,"$VNYMR,+072.034,+070.818,-067.502,-00.1552,-00.1282,-00.1671,+00.658,+00.870,-02.675,-02.932978,+00.391418,+00.656896*6D
"
1712237220.9689562,+070.620,+072.053,-073.067,-00.1652,-00.1316,-00.1903,+01.070,+01.343,-06.209,-02.957997,+00.753021,+00.760435,"$VNYMR,+070.620,+072.053,-073.067,-00.1652,-00.1316,-00.1903,+01.070,+01.343,-06.209,-02.957997,+00.753021,+00.760435*64
"
1712237220.9928463,+066.895,+073.557,-080.922,-00.1743,-00.1420,-00.2106,+02.650,+01.383,-04.405,-03.022553,+01.104381,+00.919335,"$VNYMR,+066.895,+073.557,-080.922,-00.1743,-00.1420,-00.2106,+02.650,+01.383,-04.405,-03.022553,+01.104381,+00.919335*6C
"
1712237221.0154314,+060.133,+075.077,-091.766,-00.1835,-00.1572,-00.2363,+04.889,-00.034,-04.289,-03.029793,+01.498564,+01.026217,"$VNYMR,+060.133,+075.077,-091.766,-00.1835,-00.1572,-00.2363,+04.889,-00.034,-04.289,-03.029793,+01.498564,+01.026217*62
"
1712237221.040051,+049.642,+076.170,-106.488,-00.2014,-00.1640,-00.2571,+33.895,-03.585,-13.280,-03.482081,+01.828215,+00.941173,"$VNYMR,+049.642,+076.170,-106.488,-00.2014,-00.1640,-00.2571,+33.895,-03.585,-13.280,-03.482081,+01.828215,+00.941173*6B
"
1712237221.065283,+038.818,+075.652,-121.855,-00.2093,-00.1721,-00.3082,+40.103,-06.368,+12.559,-02.650034,+01.312905,+00.323652,"$VNYMR,+038.818,+075.652,-121.855,-00.2093,-00.1721,-00.3082,+40.103,-06.368,+12.559,-02.650034,+01.312905,+00.323652*66
"
1712237221.0921996,+032.481,+075.058,-131.979,-00.2181,-00.1684,-00.3180,+12.675,+01.656,+13.826,-02.746949,+01.241218,+00.307072,"$VNYMR,+032.481,+075.058,-131.979,-00.2181,-00.1684,-00.3180,+12.675,+01.656,+13.826,-02.746949,+01.241218,+00.307072*66
"
1712237221.1151166,+028.114,+074.340,-140.201,-00.2193,-00.1719,-00.3447,+09.078,+01.883,+06.449,-02.712678,+00.521988,+00.114336,"$VNYMR,+028.114,+074.340,-140.201,-00.2193,-00.1719,-00.3447,+09.078,+01.883,+06.449,-02.712678,+00.521988,+00.114336*6E
"
1712237221.1402528,+026.285,+073.965,-145.866,-00.2159,-00.1707,-00.3619,+03.733,-01.002,+04.976,-02.693099,+00.450744,+00.128258,"$VNYMR,+026.285,+073.965,-145.866,-00.2159,-00.1707,-00.3619,+03.733,-01.002,+04.976,-02.693099,+00.450744,+00.128258*67
"
1712237221.1676834,+025.438,+073.768,-150.545,-00.2174,-00.1885,-00.3805,+08.034,-01.167,+06.837,-02.677298,-00.000836,+00.020416,"$VNYMR,+025.438,+073.768,-150.545,-00.2174,-00.1885,-00.3805,+08.034,-01.167,+06.837,-02.677298,-00.000836,+00.020416*68
"
1712237221.1899676,+026.294,+074.191,-153.507,-00.2153,-00.1968,-00.3762,+08.478,-00.502,+11.198,-02.642568,-00.514051,-00.030910,"$VNYMR,+026.294,+074.191,-153.507,-00.2153,-00.1968,-00.3762,+08.478,-00.502,+11.198,-02.642568,-00.514051,-00.030910*6B
"
1712237221.2153,+028.259,+075.113,-155.343,-00.2120,-00.1992,-00.3934,+04.657,+00.389,+04.415,-02.587294,-00.842085,-00.083629,"$VNYMR,+028.259,+075.113,-155.343,-00.2120,-00.1992,-00.3934,+04.657,+00.389,+04.415,-02.587294,-00.842085,-00.083629*63
"
1712237221.2402382,+031.647,+076.377,-155.760,-00.2100,-00.2087,-00.3932,+06.893,-00.115,+07.336,-02.582213,-01.186217,-00.218514,"$VNYMR,+031.647,+076.377,-155.760,-00.2100,-00.2087,-00.3932,+06.893,-00.115,+07.336,-02.582213,-01.186217,-00.218514*62
"
1712237221.265067,+036.912,+078.163,-154.320,-00.2076,-00.2005,-00.3851,+09.340,+00.872,+08.838,-02.556630,-01.612956,-00.203559,"$VNYMR,+036.912,+078.163,-154.320,-00.2076,-00.2005,-00.3851,+09.340,+00.872,+08.838,-02.556630,-01.612956,-00.203559*69
"
1712237221.2899952,+046.098,+080.576,-148.901,-00.2001,-00.2112,-00.3913,+17.423,+04.392,+12.393,-02.443526,-02.320925,-00.228865,"$VNYMR,+046.098,+080.576,-148.901,-00.2001,-00.2112,-00.3913,+17.423,+04.392,+12.393,-02.443526,-02.320925,-00.228865*62
"
1712237221.3150492,+062.585,+083.505,-136.174,-00.1947,-00.2232,-00.3695,+31.868,+08.431,+00.916,-02.506139,-02.572048,+00.186103,"$VNYMR,+062.585,+083.505,-136.174,-00.1947,-00.2232,-00.3695,+31.868,+08.431,+00.916,-02.506139,-02.572048,+00.186103*61
"
1712237221.3428617,+084.806,+085.810,-117.555,-00.1926,-00.2268,-00.3494,+15.178,+04.549,-16.750,-02.530981,-01.758134,+00.509543,"$VNYMR,+084.806,+085.810,-117.555,-00.1926,-00.2268,-00.3494,+15.178,+04.549,-16.750,-02.530981,-01.758134,+00.509543*60
"
1712237221.365424,+121.527,+086.790,-084.462,-00.1858,-00.2174,-00.3611,+01.805,-00.147,-03.199,-02.496360,-01.632959,+00.318022,"$VNYMR,+121.527,+086.790,-084.462,-00.1858,-00.2174,-00.3611,+01.805,-00.147,-03.199,-02.496360,-01.632959,+00.318022*68
"
1712237221.38986,+156.420,+086.551,-053.258,-00.1826,-00.2281,-00.3488,+01.877,+01.275,-00.591,-02.517901,-01.254780,+00.324153,"$VNYMR,+156.420,+086.551,-053.258,-00.1826,-00.2281,-00.3488,+01.877,+01.275,-00.591,-02.517901,-01.254780,+00.324153*6A
"
1712237221.4151297,+177.805,+085.710,-035.594,-00.1803,-00.2211,-00.3595,+01.277,+01.208,-03.127,-02.576878,-00.935497,+00.336145,"$VNYMR,+177.805,+085.710,-035.594,-00.1803,-00.2211,-00.3595,+01.277,+01.208,-03.127,-02.576878,-00.935497,+00.336145*6C
"
1712237221.444462,-170.758,+085.176,-027.927,-00.1793,-00.2258,-00.3740,+02.276,+01.084,-07.238,-02.626452,-00.499635,+00.348984,"$VNYMR,-170.758,+085.176,-027.927,-00.1793,-00.2258,-00.3740,+02.276,+01.084,-07.238,-02.626452,-00.499635,+00.348984*68
"
1712237221.4677324,-163.008,+084.972,-023.973,-00.1772,-00.2353,-00.3885,+02.086,+00.290,-03.062,-02.639390,-00.190186,+00.371184,"$VNYMR,-163.008,+084.972,-023.973,-00.1772,-00.2353,-00.3885,+02.086,+00.290,-03.062,-02.639390,-00.190186,+00.371184*67
"
1712237221.4897842,-157.213,+085.225,-022.004,-00.1837,-00.2281,-00.3889,+07.874,-00.597,-03.230,-02.685822,+00.173897,+00.377127,"$VNYMR,-157.213,+085.225,-022.004,-00.1837,-00.2281,-00.3889,+07.874,-00.597,-03.230,-02.685822,+00.173897,+00.377127*6F
"
1712237221.514975,-152.806,+086.194,-021.543,-00.1817,-00.2388,-00.4194,+19.567,+02.103,-12.553,-02.825116,+00.813379,+00.466717,"$VNYMR,-152.806,+086.194,-021.543,-00.1817,-00.2388,-00.4194,+19.567,+02.103,-12.553,-02.825116,+00.813379,+00.466717*60
"
1712237221.541776,-153.105,+087.001,-025.666,-00.1848,-00.2269,-00.4317,+24.197,-01.726,+02.042,-02.464572,+00.595731,+00.192334,"$VNYMR,-153.105,+087.001,-025.666,-00.1848,-00.2269,-00.4317,+24.197,-01.726,+02.042,-02.464572,+00.595731,+00.192334*66
"
1712237221.5650792,-153.670,+087.636,-029.820,-00.1848,-00.2257,-00.4531,+14.664,-03.632,+08.941,-02.474823,+00.324206,+00.089701,"$VNYMR,-153.670,+087.636,-029.820,-00.1848,-00.2257,-00.4531,+14.664,-03.632,+08.941,-02.474823,+00.324206,+00.089701*6C
"
1712237221.5911207,-154.456,+087.685,-034.008,-00.1793,-00.2282,-00.4714,+07.860,-00.660,+05.116,-02.342992,-00.186323,-00.117492,"$VNYMR,-154.456,+087.685,-034.008,-00.1793,-00.2282,-00.4714,+07.860,-00.660,+05.116,-02.342992,-00.186323,-00.117492*6E
"
1712237221.6166234,-153.754,+087.095,-036.623,-00.1762,-00.2389,-00.4791,+06.570,-02.156,+05.624,-02.291681,-00.456514,-00.277078,"$VNYMR,-153.754,+087.095,-036.623,-00.1762,-00.2389,-00.4791,+06.570,-02.156,+05.624,-02.291681,-00.456514,-00.277078*6D
"
1712237221.6398919,-152.131,+085.992,-038.207,-00.1763,-00.2424,-00.4791,+06.474,-02.017,+06.086,-02.202420,-00.760377,-00.498259,"$VNYMR,-152.131,+085.992,-038.207,-00.1763,-00.2424,-00.4791,+06.474,-02.017,+06.086,-02.202420,-00.760377,-00.498259*64
"
1712237221.667222,-150.060,+084.378,-039.250,-00.1696,-00.2425,-00.4921,+05.950,-01.865,+05.587,-02.139913,-01.066147,-00.697974,"$VNYMR,-150.060,+084.378,-039.250,-00.1696,-00.2425,-00.4921,+05.950,-01.865,+05.587,-02.139913,-01.066147,-00.697974*6F
"
1712237221.6901968,-147.908,+082.271,-040.143,-00.1675,-00.2508,-00.4866,+12.173,-01.266,+06.982,-02.097534,-01.376491,-00.888986,"$VNYMR,-147.908,+082.271,-040.143,-00.1675,-00.2508,-00.4866,+12.173,-01.266,+06.982,-02.097534,-01.376491,-00.888986*6F
"
1712237221.714797,-145.523,+079.478,-040.673,-00.1609,-00.2510,-00.4902,+18.899,-02.912,+10.651,-01.946034,-01.851619,-01.155588,"$VNYMR,-145.523,+079.478,-040.673,-00.1609,-00.2510,-00.4902,+18.899,-02.912,+10.651,-01.946034,-01.851619,-01.155588*69
"
1712237221.742512,-143.073,+076.717,-041.000,-00.1556,-00.2641,-00.4885,+17.029,+08.419,-04.862,-01.878343,-01.589921,-00.874507,"$VNYMR,-143.073,+076.717,-041.000,-00.1556,-00.2641,-00.4885,+17.029,+08.419,-04.862,-01.878343,-01.589921,-00.874507*6D
"
1712237221.7671888,-141.010,+074.476,-041.727,-00.1447,-00.2737,-00.4851,+07.670,+06.086,-03.284,-01.925748,-01.355973,-00.623135,"$VNYMR,-141.010,+074.476,-041.727,-00.1447,-00.2737,-00.4851,+07.670,+06.086,-03.284,-01.925748,-01.355973,-00.623135*6B
"
1712237221.790334,-139.192,+072.773,-042.717,-00.1426,-00.2797,-00.4783,+02.727,+02.514,-02.170,-01.913314,-00.967691,-00.452460,"$VNYMR,-139.192,+072.773,-042.717,-00.1426,-00.2797,-00.4783,+02.727,+02.514,-02.170,-01.913314,-00.967691,-00.452460*67
"
1712237221.8149989,-137.779,+071.596,-044.103,-00.1425,-00.2773,-00.4943,+02.241,+03.693,-03.408,-01.914547,-00.689963,-00.264106,"$VNYMR,-137.779,+071.596,-044.103,-00.1425,-00.2773,-00.4943,+02.241,+03.693,-03.408,-01.914547,-00.689963,-00.264106*61
"
1712237221.8401597,-136.714,+070.971,-045.843,-00.1426,-00.2809,-00.5023,+02.650,+03.132,-04.668,-01.920418,-00.356035,-00.060543,"$VNYMR,-136.714,+070.971,-045.843,-00.1426,-00.2809,-00.5023,+02.650,+03.132,-04.668,-01.920418,-00.356035,-00.060543*65
"
1712237221.8664207,-136.007,+070.882,-047.936,-00.1391,-00.2691,-00.5102,+03.276,+02.689,-03.645,-01.937725,-00.019718,+00.149795,"$VNYMR,-136.007,+070.882,-047.936,-00.1391,-00.2691,-00.5102,+03.276,+02.689,-03.645,-01.937725,-00.019718,+00.149795*6B
"
1712237221.8905118,-135.816,+071.352,-050.529,-00.1423,-00.2631,-00.5371,+06.820,+04.122,-04.142,-01.929874,+00.305050,+00.377693,"$VNYMR,-135.816,+071.352,-050.529,-00.1423,-00.2631,-00.5371,+06.820,+04.122,-04.142,-01.929874,+00.305050,+00.377693*65
"
1712237221.9149327,-136.351,+072.408,-053.846,-00.1433,-00.2584,-00.5466,+14.601,+02.752,-06.299,-01.995377,+00.702164,+00.582427,"$VNYMR,-136.351,+072.408,-053.846,-00.1433,-00.2584,-00.5466,+14.601,+02.752,-06.299,-01.995377,+00.702164,+00.582427*6A
"
1712237221.9399858,-137.639,+073.559,-057.876,-00.1441,-00.2442,-00.5615,+19.527,-04.977,+02.374,-01.856284,+00.651038,+00.457412,"$VNYMR,-137.639,+073.559,-057.876,-00.1441,-00.2442,-00.5615,+19.527,-04.977,+02.374,-01.856284,+00.651038,+00.457412*6B
"
1712237221.9647882,-139.692,+074.455,-062.456,-00.1453,-00.2477,-00.5882,+11.872,-03.646,+05.586,-01.769137,+00.590739,+00.239168,"$VNYMR,-139.692,+074.455,-062.456,-00.1453,-00.2477,-00.5882,+11.872,-03.646,+05.586,-01.769137,+00.590739,+00.239168*66
"
1712237221.991333,-141.671,+074.842,-066.847,-00.1484,-00.2358,-00.5938,+07.548,-02.693,+03.299,-01.702872,+00.355921,-00.013045,"$VNYMR,-141.671,+074.842,-066.847,-00.1484,-00.2358,-00.5938,+07.548,-02.693,+03.299,-01.702872,+00.355921,-00.013045*6C
"
1712237222.0161963,-142.931,+074.746,-070.431,-00.1459,-00.2240,-00.6112,+06.509,-02.539,+04.275,-01.612766,+00.094345,-00.232888,"$VNYMR,-142.931,+074.746,-070.431,-00.1459,-00.2240,-00.6112,+06.509,-02.539,+04.275,-01.612766,+00.094345,-00.232888*68
"
1712237222.042247,-143.272,+074.258,-073.018,-00.1415,-00.2253,-00.6216,+06.912,-01.692,+03.969,-01.548665,-00.140165,-00.419479,"$VNYMR,-143.272,+074.258,-073.018,-00.1415,-00.2253,-00.6216,+06.912,-01.692,+03.969,-01.548665,-00.140165,-00.419479*65
"
1712237222.0648334,-142.518,+073.406,-074.455,-00.1394,-00.2300,-00.6308,+10.037,-02.138,+05.435,-01.491175,-00.418501,-00.601944,"$VNYMR,-142.518,+073.406,-074.455,-00.1394,-00.2300,-00.6308,+10.037,-02.138,+05.435,-01.491175,-00.418501,-00.601944*62
"
1712237222.0898204,-140.581,+072.223,-074.659,-00.1405,-00.2324,-00.6228,+15.777,-00.252,+05.998,-01.388227,-00.733858,-00.721415,"$VNYMR,-140.581,+072.223,-074.659,-00.1405,-00.2324,-00.6228,+15.777,-00.252,+05.998,-01.388227,-00.733858,-00.721415*6F
"
1712237222.1146934,-137.582,+071.032,-073.747,-00.1428,-00.2335,-00.6349,+15.250,+07.043,+02.336,-01.337549,-00.899954,-00.477809,"$VNYMR,-137.582,+071.032,-073.747,-00.1428,-00.2335,-00.6349,+15.250,+07.043,+02.336,-01.337549,-00.899954,-00.477809*6F
"
1712237222.1398351,-134.493,+070.287,-072.748,-00.1461,-00.2311,-00.6245,+08.965,+06.322,-01.203,-01.352331,-00.836307,-00.165705,"$VNYMR,-134.493,+070.287,-072.748,-00.1461,-00.2311,-00.6245,+08.965,+06.322,-01.203,-01.352331,-00.836307,-00.165705*68
"
1712237222.1663845,-131.744,+070.053,-072.084,-00.1501,-00.2109,-00.6343,+05.456,+04.074,-02.923,-01.349549,-00.577209,+00.152070,"$VNYMR,-131.744,+070.053,-072.084,-00.1501,-00.2109,-00.6343,+05.456,+04.074,-02.923,-01.349549,-00.577209,+00.152070*68
"
1712237222.1914458,-129.466,+070.263,-071.856,-00.1521,-00.2002,-00.6412,+04.110,+03.922,-03.512,-01.336432,-00.369274,+00.407286,"$VNYMR,-129.466,+070.263,-071.856,-00.1521,-00.2002,-00.6412,+04.110,+03.922,-03.512,-01.336432,-00.369274,+00.407286*60
"
1712237222.2169838,-127.920,+070.910,-072.320,-00.1588,-00.2001,-00.6415,+04.092,+02.893,-04.126,-01.338306,-00.090329,+00.629667,"$VNYMR,-127.920,+070.910,-072.320,-00.1588,-00.2001,-00.6415,+04.092,+02.893,-04.126,-01.338306,-00.090329,+00.629667*62
"
1712237222.2411284,-127.351,+071.967,-073.708,-00.1630,-00.1906,-00.6365,+05.139,+02.513,-04.315,-01.353543,+00.215297,+00.820837,"$VNYMR,-127.351,+071.967,-073.708,-00.1630,-00.1906,-00.6365,+05.139,+02.513,-04.315,-01.353543,+00.215297,+00.820837*60
"
1712237222.2647216,-128.125,+073.378,-076.402,-00.1638,-00.1752,-00.6567,+08.196,+01.086,-05.030,-01.379757,+00.544169,+00.952123,"$VNYMR,-128.125,+073.378,-076.402,-00.1638,-00.1752,-00.6567,+08.196,+01.086,-05.030,-01.379757,+00.544169,+00.952123*66
"
1712237222.2924612,-130.723,+074.909,-080.904,-00.1666,-00.1479,-00.6719,+13.922,-01.847,-02.404,-01.412221,+00.731816,+00.910389,"$VNYMR,-130.723,+074.909,-080.904,-00.1666,-00.1479,-00.6719,+13.922,-01.847,-02.404,-01.412221,+00.731816,+00.910389*6D
"
1712237222.3147511,-134.703,+076.203,-086.647,-00.1719,-00.1324,-00.6844,+13.511,-03.526,+02.328,-01.284851,+00.799115,+00.757732,"$VNYMR,-134.703,+076.203,-086.647,-00.1719,-00.1324,-00.6844,+13.511,-03.526,+02.328,-01.284851,+00.799115,+00.757732*69
"
1712237222.342492,-138.670,+077.086,-092.275,-00.1682,-00.1124,-00.7004,+10.953,-02.582,+04.394,-01.196971,+00.551280,+00.528276,"$VNYMR,-138.670,+077.086,-092.275,-00.1682,-00.1124,-00.7004,+10.953,-02.582,+04.394,-01.196971,+00.551280,+00.528276*60
"
1712237222.365035,-141.366,+077.645,-096.552,-00.1693,-00.1136,-00.7071,+09.471,-01.399,+04.844,-01.112375,+00.250283,+00.351738,"$VNYMR,-141.366,+077.645,-096.552,-00.1693,-00.1136,-00.7071,+09.471,-01.399,+04.844,-01.112375,+00.250283,+00.351738*6E
"
1712237222.3924134,-142.069,+078.034,-098.792,-00.1725,-00.1076,-00.6967,+09.599,-00.851,+04.951,-01.061169,-00.066099,+00.240110,"$VNYMR,-142.069,+078.034,-098.792,-00.1725,-00.1076,-00.6967,+09.599,-00.851,+04.951,-01.061169,-00.066099,+00.240110*6B
"
1712237222.4153774,-140.396,+078.398,-098.638,-00.1755,-00.0933,-00.7104,+10.571,+00.074,+05.439,-01.016071,-00.391097,+00.204185,"$VNYMR,-140.396,+078.398,-098.638,-00.1755,-00.0933,-00.7104,+10.571,+00.074,+05.439,-01.016071,-00.391097,+00.204185*68
"
1712237222.4423025,-136.221,+078.848,-095.981,-00.1820,-00.0814,-00.7042,+13.276,+02.591,+05.177,-00.991360,-00.717541,+00.277026,"$VNYMR,-136.221,+078.848,-095.981,-00.1820,-00.0814,-00.7042,+13.276,+02.591,+05.177,-00.991360,-00.717541,+00.277026*64
"
1712237222.4647367,-129.706,+079.511,-090.973,-00.1928,-00.0694,-00.6929,+13.789,+05.437,+01.735,-00.953647,-00.957828,+00.512884,"$VNYMR,-129.706,+079.511,-090.973,-00.1928,-00.0694,-00.6929,+13.789,+05.437,+01.735,-00.953647,-00.957828,+00.512884*61
"
1712237222.4920628,-121.841,+080.440,-084.598,-00.1949,-00.0611,-00.6931,+10.694,+04.621,-03.435,-00.961526,-00.885711,+00.804591,"$VNYMR,-121.841,+080.440,-084.598,-00.1949,-00.0611,-00.6931,+10.694,+04.621,-03.435,-00.961526,-00.885711,+00.804591*69
"
1712237222.514753,-113.600,+081.560,-077.816,-00.2035,-00.0479,-00.6897,+07.429,+02.395,-04.313,-00.939501,-00.668877,+00.976684,"$VNYMR,-113.600,+081.560,-077.816,-00.2035,-00.0479,-00.6897,+07.429,+02.395,-04.313,-00.939501,-00.668877,+00.976684*65
"
1712237222.5421104,-105.996,+082.813,-071.644,-00.2121,-00.0312,-00.6690,+06.496,+00.761,-04.193,-00.941700,-00.357634,+01.043913,"$VNYMR,-105.996,+082.813,-071.644,-00.2121,-00.0312,-00.6690,+06.496,+00.761,-04.193,-00.941700,-00.357634,+01.043913*61
"
1712237222.5677314,-099.518,+084.134,-066.595,-00.2106,-00.0123,-00.6798,+06.404,-00.876,-04.827,-00.973737,-00.018786,+01.026671,"$VNYMR,-099.518,+084.134,-066.595,-00.2106,-00.0123,-00.6798,+06.404,-00.876,-04.827,-00.973737,-00.018786,+01.026671*6F
"
1712237222.592468,-095.041,+085.494,-063.546,-00.2156,+00.0138,-00.6777,+07.446,-01.615,-03.763,-00.986609,+00.255926,+00.939465,"$VNYMR,-095.041,+085.494,-063.546,-00.2156,+00.0138,-00.6777,+07.446,-01.615,-03.763,-00.986609,+00.255926,+00.939465*6C
"
1712237222.6147094,-094.495,+086.833,-064.406,-00.2153,+00.0304,-00.6792,+11.299,-02.382,-02.414,-00.968423,+00.453469,+00.782169,"$VNYMR,-094.495,+086.833,-064.406,-00.2153,+00.0304,-00.6792,+11.299,-02.382,-02.414,-00.968423,+00.453469,+00.782169*61
"
1712237222.640888,-100.940,+087.987,-072.187,-00.2118,+00.0386,-00.6925,+14.256,-02.700,+01.593,-00.921040,+00.471332,+00.596066,"$VNYMR,-100.940,+087.987,-072.187,-00.2118,+00.0386,-00.6925,+14.256,-02.700,+01.593,-00.921040,+00.471332,+00.596066*64
"
1712237222.6647038,-111.985,+088.837,-084.442,-00.2129,+00.0410,-00.6952,+13.436,-00.792,+05.385,-00.814650,+00.234798,+00.514461,"$VNYMR,-111.985,+088.837,-084.442,-00.2129,+00.0410,-00.6952,+13.436,-00.792,+05.385,-00.814650,+00.234798,+00.514461*66
"
1712237222.6895795,-113.742,+089.568,-087.324,-00.2136,+00.0575,-00.6808,+10.604,+01.122,+04.025,-00.769941,-00.068753,+00.517119,"$VNYMR,-113.742,+089.568,-087.324,-00.2136,+00.0575,-00.6808,+10.604,+01.122,+04.025,-00.769941,-00.068753,+00.517119*6A
"
1712237222.7145991,+017.049,+089.470,+042.380,-00.2157,+00.0682,-00.6877,+10.861,+02.124,+04.919,-00.743534,-00.381531,+00.594772,"$VNYMR,+017.049,+089.470,+042.380,-00.2157,+00.0682,-00.6877,+10.861,+02.124,+04.919,-00.743534,-00.381531,+00.594772*62
"
1712237222.739454,+022.248,+088.211,+046.527,-00.2198,+00.0813,-00.6734,+10.964,+02.343,+03.844,-00.725204,-00.699839,+00.717564,"$VNYMR,+022.248,+088.211,+046.527,-00.2198,+00.0813,-00.6734,+10.964,+02.343,+03.844,-00.725204,-00.699839,+00.717564*6D
"
1712237222.764469,+020.980,+086.540,+044.251,-00.2249,+00.1062,-00.6673,+12.426,+02.034,+02.701,-00.691711,-00.928718,+00.850152,"$VNYMR,+020.980,+086.540,+044.251,-00.2249,+00.1062,-00.6673,+12.426,+02.034,+02.701,-00.691711,-00.928718,+00.850152*65
"
1712237222.7916312,+020.841,+084.617,+043.149,-00.2225,+00.1156,-00.6619,+12.971,+00.856,-00.127,-00.658823,-00.974362,+00.946513,"$VNYMR,+020.841,+084.617,+043.149,-00.2225,+00.1156,-00.6619,+12.971,+00.856,-00.127,-00.658823,-00.974362,+00.946513*6C
"
1712237222.8147879,+021.938,+082.787,+043.314,-00.2234,+00.1239,-00.6514,+10.007,-01.109,-04.002,-00.639900,-00.789446,+00.907339,"$VNYMR,+021.938,+082.787,+043.314,-00.2234,+00.1239,-00.6514,+10.007,-01.109,-04.002,-00.639900,-00.789446,+00.907339*6F
"
1712237222.8394284,+023.522,+081.288,+043.986,-00.2287,+00.1382,-00.6225,+06.129,-01.565,-03.108,-00.632605,-00.558092,+00.783121,"$VNYMR,+023.522,+081.288,+043.986,-00.2287,+00.1382,-00.6225,+06.129,-01.565,-03.108,-00.632605,-00.558092,+00.783121*6D
"
1712237222.8671227,+025.574,+080.175,+045.098,-00.2295,+00.1536,-00.6294,+05.910,-01.865,-04.290,-00.640683,-00.280743,+00.654814,"$VNYMR,+025.574,+080.175,+045.098,-00.2295,+00.1536,-00.6294,+05.910,-01.865,-04.290,-00.640683,-00.280743,+00.654814*67
"
1712237222.8896215,+028.045,+079.469,+046.607,-00.2293,+00.1654,-00.6161,+06.581,-01.604,-03.605,-00.645756,-00.022706,+00.512895,"$VNYMR,+028.045,+079.469,+046.607,-00.2293,+00.1654,-00.6161,+06.581,-01.604,-03.605,-00.645756,-00.022706,+00.512895*66
"
1712237222.9144049,+031.101,+079.124,+048.686,-00.2245,+00.1830,-00.6188,+09.339,-01.231,-03.334,-00.638789,+00.221095,+00.402382,"$VNYMR,+031.101,+079.124,+048.686,-00.2245,+00.1830,-00.6188,+09.339,-01.231,-03.334,-00.638789,+00.221095,+00.402382*64
"
1712237222.9402447,+034.633,+079.029,+051.266,-00.2223,+00.1842,-00.6267,+12.916,-00.445,-01.058,-00.594980,+00.358031,+00.327461,"$VNYMR,+034.633,+079.029,+051.266,-00.2223,+00.1842,-00.6267,+12.916,-00.445,-01.058,-00.594980,+00.358031,+00.327461*65
"
1712237222.967462,+038.155,+078.931,+053.926,-00.2211,+00.1877,-00.6253,+13.167,+01.709,+02.639,-00.527614,+00.297494,+00.360868,"$VNYMR,+038.155,+078.931,+053.926,-00.2211,+00.1877,-00.6253,+13.167,+01.709,+02.639,-00.527614,+00.297494,+00.360868*60
"
1712237222.9894083,+040.932,+078.621,+055.904,-00.2232,+00.1925,-00.6175,+11.434,+01.670,+03.843,-00.499644,+00.081553,+00.421934,"$VNYMR,+040.932,+078.621,+055.904,-00.2232,+00.1925,-00.6175,+11.434,+01.670,+03.843,-00.499644,+00.081553,+00.421934*66
"
1712237223.0145774,+042.403,+078.039,+056.682,-00.2176,+00.1983,-00.6293,+09.234,+00.917,+04.155,-00.472104,-00.167727,+00.478191,"$VNYMR,+042.403,+078.039,+056.682,-00.2176,+00.1983,-00.6293,+09.234,+00.917,+04.155,-00.472104,-00.167727,+00.478191*68
"
1712237223.0428164,+042.433,+077.204,+056.045,-00.2172,+00.2160,-00.6081,+10.086,+00.382,+03.288,-00.456480,-00.422207,+00.492247,"$VNYMR,+042.433,+077.204,+056.045,-00.2172,+00.2160,-00.6081,+10.086,+00.382,+03.288,-00.456480,-00.422207,+00.492247*67
"
1712237223.065744,+041.292,+076.169,+054.313,-00.2170,+00.2278,-00.6002,+11.514,+00.314,+03.696,-00.421814,-00.663090,+00.486513,"$VNYMR,+041.292,+076.169,+054.313,-00.2170,+00.2278,-00.6002,+11.514,+00.314,+03.696,-00.421814,-00.663090,+00.486513*63
"
1712237223.0951793,+039.489,+075.028,+052.012,-00.2136,+00.2313,-00.5988,+11.740,-00.927,+00.669,-00.363428,-00.757832,+00.419163,"$VNYMR,+039.489,+075.028,+052.012,-00.2136,+00.2313,-00.5988,+11.740,-00.927,+00.669,-00.363428,-00.757832,+00.419163*68
"
1712237223.1147325,+037.729,+073.993,+049.834,-00.2169,+00.2302,-00.5883,+09.849,-01.757,-02.324,-00.313079,-00.670910,+00.302695,"$VNYMR,+037.729,+073.993,+049.834,-00.2169,+00.2302,-00.5883,+09.849,-01.757,-02.324,-00.313079,-00.670910,+00.302695*68
"
1712237223.1422446,+036.420,+073.224,+048.161,-00.2190,+00.2361,-00.5671,+06.991,-01.146,-03.440,-00.285011,-00.458605,+00.194394,"$VNYMR,+036.420,+073.224,+048.161,-00.2190,+00.2361,-00.5671,+06.991,-01.146,-03.440,-00.285011,-00.458605,+00.194394*6F
"
1712237223.1645515,+035.673,+072.775,+047.045,-00.2179,+00.2373,-00.5724,+05.903,-01.076,-03.719,-00.271484,-00.212273,+00.098818,"$VNYMR,+035.673,+072.775,+047.045,-00.2179,+00.2373,-00.5724,+05.903,-01.076,-03.719,-00.271484,-00.212273,+00.098818*6C
"
1712237223.1892414,+035.681,+072.675,+046.679,-00.2179,+00.2361,-00.5657,+05.763,-00.500,-03.825,-00.253233,+00.054894,+00.027739,"$VNYMR,+035.681,+072.675,+046.679,-00.2179,+00.2361,-00.5657,+05.763,-00.500,-03.825,-00.253233,+00.054894,+00.027739*64
"
1712237223.2153902,+036.491,+072.881,+047.107,-00.2209,+00.2527,-00.5674,+06.914,+00.173,-03.544,-00.228007,+00.324177,+00.003181,"$VNYMR,+036.491,+072.881,+047.107,-00.2209,+00.2527,-00.5674,+06.914,+00.173,-03.544,-00.228007,+00.324177,+00.003181*64
"
1712237223.2429926,+038.148,+073.324,+048.402,-00.2155,+00.2491,-00.5764,+09.079,+00.330,-02.524,-00.184290,+00.537144,-00.006951,"$VNYMR,+038.148,+073.324,+048.402,-00.2155,+00.2491,-00.5764,+09.079,+00.330,-02.524,-00.184290,+00.537144,-00.006951*63
"
1712237223.2654293,+040.477,+073.888,+050.428,-00.2156,+00.2444,-00.5817,+10.800,+00.603,-00.581,-00.128617,+00.640457,+00.003381,"$VNYMR,+040.477,+073.888,+050.428,-00.2156,+00.2444,-00.5817,+10.800,+00.603,-00.581,-00.128617,+00.640457,+00.003381*62
"
1712237223.2897327,+042.972,+074.404,+052.717,-00.2156,+00.2396,-00.5816,+11.586,+00.118,+02.356,-00.049136,+00.558400,+00.015025,"$VNYMR,+042.972,+074.404,+052.717,-00.2156,+00.2396,-00.5816,+11.586,+00.118,+02.356,-00.049136,+00.558400,+00.015025*64
"
1712237223.318135,+045.096,+074.798,+054.749,-00.2111,+00.2443,-00.5975,+09.776,-00.443,+02.988,+00.006218,+00.411670,+00.006801,"$VNYMR,+045.096,+074.798,+054.749,-00.2111,+00.2443,-00.5975,+09.776,-00.443,+02.988,+00.006218,+00.411670,+00.006801*64
"
1712237223.3395581,+046.346,+075.048,+055.982,-00.2112,+00.2419,-00.5921,+09.853,-00.970,+03.051,+00.023465,+00.201867,-00.031515,"$VNYMR,+046.346,+075.048,+055.982,-00.2112,+00.2419,-00.5921,+09.853,-00.970,+03.051,+00.023465,+00.201867,-00.031515*60
"
1712237223.365211,+046.431,+075.184,+056.116,-00.2098,+00.2549,-00.5949,+09.877,-01.193,+02.699,+00.044690,-00.012403,-00.099781,"$VNYMR,+046.431,+075.184,+056.116,-00.2098,+00.2549,-00.5949,+09.877,-01.193,+02.699,+00.044690,-00.012403,-00.099781*64
"
1712237223.390426,+045.435,+075.258,+055.247,-00.2122,+00.2431,-00.6002,+10.840,-00.690,+01.858,+00.077242,-00.172659,-00.168832,"$VNYMR,+045.435,+075.258,+055.247,-00.2122,+00.2431,-00.6002,+10.840,-00.690,+01.858,+00.077242,-00.172659,-00.168832*6E
"
1712237223.4170325,+043.712,+075.329,+053.719,-00.2135,+00.2384,-00.5935,+10.883,-01.190,+00.090,+00.111345,-00.237638,-00.248832,"$VNYMR,+043.712,+075.329,+053.719,-00.2135,+00.2384,-00.5935,+10.883,-01.190,+00.090,+00.111345,-00.237638,-00.248832*67
"
1712237223.4395745,+041.867,+075.510,+052.111,-00.2157,+00.2373,-00.5883,+09.604,-01.037,-02.220,+00.132967,-00.138554,-00.330211,"$VNYMR,+041.867,+075.510,+052.111,-00.2157,+00.2373,-00.5883,+09.604,-01.037,-02.220,+00.132967,-00.138554,-00.330211*68
"
1712237223.4675612,+040.329,+075.888,+050.805,-00.2148,+00.2242,-00.5988,+07.790,-01.236,-03.044,+00.114597,+00.032721,-00.395429,"$VNYMR,+040.329,+075.888,+050.805,-00.2148,+00.2242,-00.5988,+07.790,-01.236,-03.044,+00.114597,+00.032721,-00.395429*65
"
1712237223.4918,+039.544,+076.508,+050.182,-00.2194,+00.2161,-00.5909,+06.704,-00.795,-03.491,+00.071022,+00.270473,-00.431141,"$VNYMR,+039.544,+076.508,+050.182,-00.2194,+00.2161,-00.5909,+06.704,-00.795,-03.491,+00.071022,+00.270473,-00.431141*6A
"
1712237223.5179334,+039.862,+077.376,+050.551,-00.2203,+00.2267,-00.5964,+07.130,-00.467,-03.296,+00.023577,+00.521234,-00.434953,"$VNYMR,+039.862,+077.376,+050.551,-00.2203,+00.2267,-00.5964,+07.130,-00.467,-03.296,+00.023577,+00.521234,-00.434953*61
"
1712237223.5433185,+041.454,+078.447,+052.095,-00.2184,+00.2137,-00.6108,+08.421,-00.448,-02.438,-00.016626,+00.738557,-00.436012,"$VNYMR,+041.454,+078.447,+052.095,-00.2184,+00.2137,-00.6108,+08.421,-00.448,-02.438,-00.016626,+00.738557,-00.436012*6C
"
1712237223.5654926,+044.479,+079.658,+054.978,-00.2163,+00.2042,-00.6213,+10.308,-00.599,-00.799,-00.080779,+00.867574,-00.438447,"$VNYMR,+044.479,+079.658,+054.978,-00.2163,+00.2042,-00.6213,+10.308,-00.599,-00.799,-00.080779,+00.867574,-00.438447*6C
"
