Timestamp,Yaw,Pitch,Roll,Angular Velocity X,Angular Velocity Y,Angular Velocity Z,Linear Acceleration X,Linear Acceleration Y,Linear Acceleration Z,Magnetic Field X,Magnetic Field Y,Magnetic Field Z,Original String
1712237557.785117,-039.418,+084.533,-107.968,-00.2361,+00.2139,-00.4329,+09.792,+00.802,+00.241,-00.001657,+00.017031,+00.002096,"$VNYMR,-039.418,+084.533,-107.968,-00.2361,+00.2139,-00.4329,+09.792,+00.802,+00.241,-00.001657,+00.017031,+00.002096*60
"
1712237557.812596,-039.655,+084.531,-108.202,-00.2361,+00.2128,-00.4436,+09.816,+00.801,+00.236,-00.000905,+00.016544,+00.001727,"$VNYMR,-039.655,+084.531,-108.202,-00.2361,+00.2128,-00.4436,+09.816,+00.801,+00.236,-00.000905,+00.016544,+00.001727*69
"
1712237557.8384557,-039.917,+084.528,-108.462,-00.2372,+00.2140,-00.4383,+09.672,+00.789,+00.274,-00.000983,+00.016460,+00.001486,"$VNYMR,-039.917,+084.528,-108.462,-00.2372,+00.2140,-00.4383,+09.672,+00.789,+00.274,-00.000983,+00.016460,+00.001486*69
"
1712237557.8628454,-040.130,+084.527,-108.672,-00.2326,+00.2257,-00.4422,+09.875,+00.839,+00.216,-00.000845,+00.015020,+00.002830,"$VNYMR,-040.130,+084.527,-108.672,-00.2326,+00.2257,-00.4422,+09.875,+00.839,+00.216,-00.000845,+00.015020,+00.002830*6D
"
1712237557.885346,-040.378,+084.530,-108.914,-00.2348,+00.2246,-00.4437,+09.757,+00.840,+00.244,-00.000921,+00.015177,+00.007312,"$VNYMR,-040.378,+084.530,-108.914,-00.2348,+00.2246,-00.4437,+09.757,+00.840,+00.244,-00.000921,+00.015177,+00.007312*6E
"
1712237557.910323,-040.603,+084.540,-109.137,-00.2361,+00.2140,-00.4449,+09.740,+00.845,+00.237,+00.000225,+00.013677,+00.011941,"$VNYMR,-040.603,+084.540,-109.137,-00.2361,+00.2140,-00.4449,+09.740,+00.845,+00.237,+00.000225,+00.013677,+00.011941*6B
"
1712237557.9352453,-040.909,+084.556,-109.437,-00.2361,+00.2163,-00.4396,+09.790,+00.870,+00.233,-00.000316,+00.014941,+00.018438,"$VNYMR,-040.909,+084.556,-109.437,-00.2361,+00.2163,-00.4396,+09.790,+00.870,+00.233,-00.000316,+00.014941,+00.018438*67
"
1712237557.9599254,-041.224,+084.578,-109.750,-00.2316,+00.2174,-00.4461,+09.834,+00.827,+00.242,-00.001846,+00.011965,+00.021700,"$VNYMR,-041.224,+084.578,-109.750,-00.2316,+00.2174,-00.4461,+09.834,+00.827,+00.242,-00.001846,+00.011965,+00.021700*6E
"
1712237557.9879284,-041.493,+084.605,-110.016,-00.2348,+00.2269,-00.4424,+09.725,+00.801,+00.236,-00.000265,+00.010285,+00.023207,"$VNYMR,-041.493,+084.605,-110.016,-00.2348,+00.2269,-00.4424,+09.725,+00.801,+00.236,-00.000265,+00.010285,+00.023207*63
"
1712237558.0134902,-041.729,+084.634,-110.249,-00.2336,+00.2281,-00.4476,+09.828,+00.777,+00.206,+00.001095,+00.008144,+00.022560,"$VNYMR,-041.729,+084.634,-110.249,-00.2336,+00.2281,-00.4476,+09.828,+00.777,+00.206,+00.001095,+00.008144,+00.022560*66
"
1712237558.034788,-041.971,+084.662,-110.483,-00.2313,+00.2316,-00.4489,+09.750,+00.766,+00.223,+00.001032,+00.008134,+00.021789,"$VNYMR,-041.971,+084.662,-110.483,-00.2313,+00.2316,-00.4489,+09.750,+00.766,+00.223,+00.001032,+00.008134,+00.021789*65
"
1712237558.059987,-042.202,+084.686,-110.708,-00.2306,+00.2150,-00.4447,+09.853,+00.790,+00.303,+00.002319,+00.006339,+00.017564,"$VNYMR,-042.202,+084.686,-110.708,-00.2306,+00.2150,-00.4447,+09.853,+00.790,+00.303,+00.002319,+00.006339,+00.017564*6F
"
1712237558.0849576,-042.368,+084.712,-110.865,-00.2360,+00.2187,-00.4316,+09.847,+00.805,+00.264,+00.002762,+00.002549,+00.019026,"$VNYMR,-042.368,+084.712,-110.865,-00.2360,+00.2187,-00.4316,+09.847,+00.805,+00.264,+00.002762,+00.002549,+00.019026*65
"
1712237558.11031,-042.525,+084.738,-111.014,-00.2316,+00.2162,-00.4474,+09.761,+00.831,+00.270,+00.002930,-00.000071,+00.020595,"$VNYMR,-042.525,+084.738,-111.014,-00.2316,+00.2162,-00.4474,+09.761,+00.831,+00.270,+00.002930,-00.000071,+00.020595*69
"
1712237558.1353292,-042.637,+084.769,-111.120,-00.2349,+00.2175,-00.4422,+09.829,+00.829,+00.276,+00.003334,+00.000040,+00.022833,"$VNYMR,-042.637,+084.769,-111.120,-00.2349,+00.2175,-00.4422,+09.829,+00.829,+00.276,+00.003334,+00.000040,+00.022833*60
"
1712237558.165826,-042.774,+084.804,-111.246,-00.2336,+00.2281,-00.4370,+09.749,+00.863,+00.222,+00.004272,-00.001659,+00.027147,"$VNYMR,-042.774,+084.804,-111.246,-00.2336,+00.2281,-00.4370,+09.749,+00.863,+00.222,+00.004272,-00.001659,+00.027147*65
"
1712237558.1848743,-042.911,+084.845,-111.374,-00.2304,+00.2221,-00.4501,+09.830,+00.806,+00.204,+00.003402,-00.001460,+00.032228,"$VNYMR,-042.911,+084.845,-111.374,-00.2304,+00.2221,-00.4501,+09.830,+00.806,+00.204,+00.003402,-00.001460,+00.032228*60
"
1712237558.2107832,-043.052,+084.893,-111.507,-00.2281,+00.2256,-00.4447,+09.742,+00.795,+00.245,+00.002723,-00.001650,+00.034237,"$VNYMR,-043.052,+084.893,-111.507,-00.2281,+00.2256,-00.4447,+09.742,+00.795,+00.245,+00.002723,-00.001650,+00.034237*6B
"
1712237558.2348897,-043.201,+084.940,-111.649,-00.2327,+00.2210,-00.4342,+09.804,+00.791,+00.218,+00.003568,-00.003700,+00.034553,"$VNYMR,-043.201,+084.940,-111.649,-00.2327,+00.2210,-00.4342,+09.804,+00.791,+00.218,+00.003568,-00.003700,+00.034553*6A
"
1712237558.261498,-043.328,+084.988,-111.769,-00.2306,+00.2127,-00.4460,+09.774,+00.763,+00.233,+00.003911,-00.004876,+00.032126,"$VNYMR,-043.328,+084.988,-111.769,-00.2306,+00.2127,-00.4460,+09.774,+00.763,+00.233,+00.003911,-00.004876,+00.032126*63
"
1712237558.2848718,-043.428,+085.033,-111.860,-00.2327,+00.2198,-00.4368,+09.789,+00.769,+00.239,+00.004429,-00.003987,+00.028620,"$VNYMR,-043.428,+085.033,-111.860,-00.2327,+00.2198,-00.4368,+09.789,+00.769,+00.239,+00.004429,-00.003987,+00.028620*63
"
1712237558.310992,-043.503,+085.075,-111.925,-00.2281,+00.2280,-00.4380,+09.753,+00.759,+00.248,+00.004173,-00.008308,+00.026705,"$VNYMR,-043.503,+085.075,-111.925,-00.2281,+00.2280,-00.4380,+09.753,+00.759,+00.248,+00.004173,-00.008308,+00.026705*6E
"
1712237558.3362641,-043.540,+085.115,-111.953,-00.2302,+00.2316,-00.4515,+09.833,+00.789,+00.240,+00.005950,-00.007432,+00.026646,"$VNYMR,-043.540,+085.115,-111.953,-00.2302,+00.2316,-00.4515,+09.833,+00.789,+00.240,+00.005950,-00.007432,+00.026646*62
"
1712237558.3645837,-043.507,+085.159,-111.911,-00.2316,+00.2198,-00.4474,+09.790,+00.819,+00.260,+00.004478,-00.012938,+00.027594,"$VNYMR,-043.507,+085.159,-111.911,-00.2316,+00.2198,-00.4474,+09.790,+00.819,+00.260,+00.004478,-00.012938,+00.027594*62
"
1712237558.3877661,-043.454,+085.201,-111.852,-00.2327,+00.2198,-00.4368,+09.810,+00.809,+00.229,+00.003882,-00.014531,+00.028669,"$VNYMR,-043.454,+085.201,-111.852,-00.2327,+00.2198,-00.4368,+09.810,+00.809,+00.229,+00.003882,-00.014531,+00.028669*6D
"
1712237558.4133792,-043.385,+085.248,-111.777,-00.2283,+00.2174,-00.4432,+09.733,+00.826,+00.267,+00.005004,-00.015552,+00.031119,"$VNYMR,-043.385,+085.248,-111.777,-00.2283,+00.2174,-00.4432,+09.733,+00.826,+00.267,+00.005004,-00.015552,+00.031119*63
"
1712237558.438028,-043.284,+085.300,-111.670,-00.2337,+00.2234,-00.4383,+09.822,+00.802,+00.257,+00.004591,-00.018697,+00.033217,"$VNYMR,-043.284,+085.300,-111.670,-00.2337,+00.2234,-00.4383,+09.822,+00.802,+00.257,+00.004591,-00.018697,+00.033217*66
"
1712237558.4608471,-043.201,+085.352,-111.582,-00.2291,+00.2316,-00.4381,+09.732,+00.782,+00.231,+00.005099,-00.016827,+00.033303,"$VNYMR,-043.201,+085.352,-111.582,-00.2291,+00.2316,-00.4381,+09.732,+00.782,+00.231,+00.005099,-00.016827,+00.033303*66
"
1712237558.4857063,-043.100,+085.404,-111.472,-00.2270,+00.2280,-00.4460,+09.786,+00.751,+00.215,+00.004611,-00.019054,+00.030640,"$VNYMR,-043.100,+085.404,-111.472,-00.2270,+00.2280,-00.4460,+09.786,+00.751,+00.215,+00.004611,-00.019054,+00.030640*65
"
1712237558.511111,-042.969,+085.452,-111.337,-00.2292,+00.2292,-00.4434,+09.765,+00.762,+00.225,+00.004058,-00.016833,+00.027613,"$VNYMR,-042.969,+085.452,-111.337,-00.2292,+00.2292,-00.4434,+09.765,+00.762,+00.225,+00.004058,-00.016833,+00.027613*6B
"
1712237558.5359125,-042.848,+085.494,-111.211,-00.2293,+00.2233,-00.4287,+09.759,+00.749,+00.215,+00.003816,-00.017675,+00.024125,"$VNYMR,-042.848,+085.494,-111.211,-00.2293,+00.2233,-00.4287,+09.759,+00.749,+00.215,+00.003816,-00.017675,+00.024125*6E
"
1712237558.5636048,-042.695,+085.533,-111.053,-00.2271,+00.2197,-00.4499,+09.804,+00.751,+00.238,+00.003900,-00.015019,+00.020406,"$VNYMR,-042.695,+085.533,-111.053,-00.2271,+00.2197,-00.4499,+09.804,+00.751,+00.238,+00.003900,-00.015019,+00.020406*69
"
1712237558.5875325,-042.512,+085.567,-110.862,-00.2303,+00.2304,-00.4435,+09.757,+00.795,+00.223,+00.004279,-00.017363,+00.020235,"$VNYMR,-042.512,+085.567,-110.862,-00.2303,+00.2304,-00.4435,+09.757,+00.795,+00.223,+00.004279,-00.017363,+00.020235*66
"
1712237558.610679,-042.297,+085.599,-110.641,-00.2268,+00.2374,-00.4407,+09.777,+00.812,+00.237,+00.003912,-00.017997,+00.019485,"$VNYMR,-042.297,+085.599,-110.641,-00.2268,+00.2374,-00.4407,+09.777,+00.812,+00.237,+00.003912,-00.017997,+00.019485*68
"
1712237558.635677,-042.049,+085.634,-110.385,-00.2280,+00.2304,-00.4447,+09.781,+00.814,+00.250,+00.004117,-00.022633,+00.020962,"$VNYMR,-042.049,+085.634,-110.385,-00.2280,+00.2304,-00.4447,+09.781,+00.814,+00.250,+00.004117,-00.022633,+00.020962*68
"
1712237558.6612172,-041.742,+085.673,-110.072,-00.2260,+00.2197,-00.4418,+09.773,+00.797,+00.216,+00.003509,-00.024533,+00.022061,"$VNYMR,-041.742,+085.673,-110.072,-00.2260,+00.2197,-00.4418,+09.773,+00.797,+00.216,+00.003509,-00.024533,+00.022061*69
"
1712237558.6877093,-041.408,+085.712,-109.735,-00.2301,+00.2363,-00.4369,+09.792,+00.785,+00.261,+00.004562,-00.023516,+00.021933,"$VNYMR,-041.408,+085.712,-109.735,-00.2301,+00.2363,-00.4369,+09.792,+00.785,+00.261,+00.004562,-00.023516,+00.021933*6B
"
1712237558.7106369,-041.080,+085.750,-109.400,-00.2260,+00.2209,-00.4418,+09.790,+00.756,+00.198,+00.003128,-00.023698,+00.020180,"$VNYMR,-041.080,+085.750,-109.400,-00.2260,+00.2209,-00.4418,+09.790,+00.756,+00.198,+00.003128,-00.023698,+00.020180*66
"
1712237558.7365658,-040.719,+085.784,-109.036,-00.2281,+00.2256,-00.4367,+09.743,+00.725,+00.200,+00.003691,-00.023724,+00.015810,"$VNYMR,-040.719,+085.784,-109.036,-00.2281,+00.2256,-00.4367,+09.743,+00.725,+00.200,+00.003691,-00.023724,+00.015810*6F
"
1712237558.7608373,-040.362,+085.812,-108.678,-00.2279,+00.2386,-00.4381,+09.736,+00.719,+00.239,+00.002859,-00.023206,+00.011384,"$VNYMR,-040.362,+085.812,-108.678,-00.2279,+00.2386,-00.4381,+09.736,+00.719,+00.239,+00.002859,-00.023206,+00.011384*62
"
1712237558.7857273,-040.023,+085.833,-108.338,-00.2280,+00.2315,-00.4434,+09.829,+00.731,+00.220,+00.000945,-00.020824,+00.007302,"$VNYMR,-040.023,+085.833,-108.338,-00.2280,+00.2315,-00.4434,+09.829,+00.731,+00.220,+00.000945,-00.020824,+00.007302*6E
"
1712237558.812919,-039.691,+085.846,-108.006,-00.2270,+00.2244,-00.4393,+09.645,+00.732,+00.186,+00.001247,-00.020557,+00.003776,"$VNYMR,-039.691,+085.846,-108.006,-00.2270,+00.2244,-00.4393,+09.645,+00.732,+00.186,+00.001247,-00.020557,+00.003776*69
"
1712237558.83829,-039.370,+085.854,-107.687,-00.2293,+00.2245,-00.4367,+09.886,+00.775,+00.276,+00.000801,-00.018609,+00.002641,"$VNYMR,-039.370,+085.854,-107.687,-00.2293,+00.2245,-00.4367,+09.886,+00.775,+00.276,+00.000801,-00.018609,+00.002641*67
"
1712237558.8611186,-039.073,+085.863,-107.395,-00.2270,+00.2244,-00.4473,+09.649,+00.809,+00.262,+00.000705,-00.019483,+00.001143,"$VNYMR,-039.073,+085.863,-107.395,-00.2270,+00.2244,-00.4473,+09.649,+00.809,+00.262,+00.000705,-00.019483,+00.001143*6B
"
1712237558.8856602,-038.716,+085.874,-107.038,-00.2304,+00.2233,-00.4341,+09.735,+00.815,+00.242,+00.000173,-00.018853,+00.003657,"$VNYMR,-038.716,+085.874,-107.038,-00.2304,+00.2233,-00.4341,+09.735,+00.815,+00.242,+00.000173,-00.018853,+00.003657*6A
"
1712237558.9104762,-038.384,+085.884,-106.705,-00.2291,+00.2339,-00.4341,+09.797,+00.778,+00.261,+00.000164,-00.021095,+00.004091,"$VNYMR,-038.384,+085.884,-106.705,-00.2291,+00.2339,-00.4341,+09.797,+00.778,+00.261,+00.000164,-00.021095,+00.004091*6C
"
1712237558.9361527,-038.004,+085.896,-106.327,-00.2269,+00.2327,-00.4460,+09.864,+00.770,+00.253,-00.000257,-00.017811,+00.002608,"$VNYMR,-038.004,+085.896,-106.327,-00.2269,+00.2327,-00.4460,+09.864,+00.770,+00.253,-00.000257,-00.017811,+00.002608*62
"
1712237558.9614155,-037.591,+085.903,-105.919,-00.2269,+00.2303,-00.4380,+09.802,+00.753,+00.228,-00.001109,-00.020321,-00.001498,"$VNYMR,-037.591,+085.903,-105.919,-00.2269,+00.2303,-00.4380,+09.802,+00.753,+00.228,-00.001109,-00.020321,-00.001498*64
"
1712237558.9871707,-037.137,+085.904,-105.468,-00.2303,+00.2304,-00.4301,+09.775,+00.721,+00.255,-00.000171,-00.020711,-00.005118,"$VNYMR,-037.137,+085.904,-105.468,-00.2303,+00.2304,-00.4301,+09.775,+00.721,+00.255,-00.000171,-00.020711,-00.005118*63
"
1712237559.010657,-036.714,+085.899,-105.048,-00.2282,+00.2233,-00.4433,+09.721,+00.697,+00.139,-00.001200,-00.018485,-00.011348,"$VNYMR,-036.714,+085.899,-105.048,-00.2282,+00.2233,-00.4433,+09.721,+00.697,+00.139,-00.001200,-00.018485,-00.011348*6A
"
1712237559.037489,-036.305,+085.887,-104.644,-00.2325,+00.2281,-00.4289,+09.769,+00.691,+00.207,-00.001566,-00.017036,-00.013321,"$VNYMR,-036.305,+085.887,-104.644,-00.2325,+00.2281,-00.4289,+09.769,+00.691,+00.207,-00.001566,-00.017036,-00.013321*65
"
1712237559.063177,-036.000,+085.868,-104.344,-00.2314,+00.2292,-00.4329,+09.694,+00.762,+00.187,-00.001350,-00.012619,-00.015728,"$VNYMR,-036.000,+085.868,-104.344,-00.2314,+00.2292,-00.4329,+09.694,+00.762,+00.187,-00.001350,-00.012619,-00.015728*6F
"
1712237559.085637,-035.692,+085.847,-104.042,-00.2269,+00.2315,-00.4407,+09.806,+00.791,+00.160,-00.004016,-00.010819,-00.015762,"$VNYMR,-035.692,+085.847,-104.042,-00.2269,+00.2315,-00.4407,+09.806,+00.791,+00.160,-00.004016,-00.010819,-00.015762*61
"
1712237559.11252,-035.431,+085.826,-103.790,-00.2303,+00.2280,-00.4448,+09.753,+00.795,+00.221,-00.002377,-00.008902,-00.015366,"$VNYMR,-035.431,+085.826,-103.790,-00.2303,+00.2280,-00.4448,+09.753,+00.795,+00.221,-00.002377,-00.008902,-00.015366*64
"
1712237559.1364017,-035.184,+085.806,-103.553,-00.2293,+00.2245,-00.4287,+09.871,+00.845,+00.176,-00.003640,-00.009591,-00.014872,"$VNYMR,-035.184,+085.806,-103.553,-00.2293,+00.2245,-00.4287,+09.871,+00.845,+00.176,-00.003640,-00.009591,-00.014872*60
"
1712237559.1605477,-034.982,+085.786,-103.364,-00.2291,+00.2327,-00.4368,+09.750,+00.792,+00.197,-00.003644,-00.007935,-00.016714,"$VNYMR,-034.982,+085.786,-103.364,-00.2291,+00.2327,-00.4368,+09.750,+00.792,+00.197,-00.003644,-00.007935,-00.016714*6E
"
1712237559.1855917,-034.818,+085.764,-103.207,-00.2291,+00.2339,-00.4341,+09.751,+00.761,+00.217,-00.004538,-00.008577,-00.015523,"$VNYMR,-034.818,+085.764,-103.207,-00.2291,+00.2339,-00.4341,+09.751,+00.761,+00.217,-00.004538,-00.008577,-00.015523*69
"
1712237559.210377,-034.613,+085.740,-103.012,-00.2302,+00.2316,-00.4315,+09.798,+00.778,+00.202,-00.003755,-00.007189,-00.019521,"$VNYMR,-034.613,+085.740,-103.012,-00.2302,+00.2316,-00.4315,+09.798,+00.778,+00.202,-00.003755,-00.007189,-00.019521*68
"
1712237559.2379467,-034.408,+085.709,-102.815,-00.2290,+00.2386,-00.4395,+09.722,+00.724,+00.220,-00.003364,-00.008206,-00.024163,"$VNYMR,-034.408,+085.709,-102.815,-00.2290,+00.2386,-00.4395,+09.722,+00.724,+00.220,-00.003364,-00.008206,-00.024163*61
"
1712237559.2604434,-034.170,+085.673,-102.590,-00.2291,+00.2339,-00.4355,+09.772,+00.725,+00.213,-00.005040,-00.005518,-00.027748,"$VNYMR,-034.170,+085.673,-102.590,-00.2291,+00.2339,-00.4355,+09.772,+00.725,+00.213,-00.005040,-00.005518,-00.027748*60
"
1712237559.2854638,-033.944,+085.632,-102.374,-00.2326,+00.2245,-00.4262,+09.731,+00.777,+00.182,-00.004183,-00.001095,-00.030497,"$VNYMR,-033.944,+085.632,-102.374,-00.2326,+00.2245,-00.4262,+09.731,+00.777,+00.182,-00.004183,-00.001095,-00.030497*64
"
1712237559.3105733,-033.789,+085.588,-102.226,-00.2304,+00.2233,-00.4407,+09.844,+00.800,+00.197,-00.004828,+00.000495,-00.031626,"$VNYMR,-033.789,+085.588,-102.226,-00.2304,+00.2233,-00.4407,+09.844,+00.800,+00.197,-00.004828,+00.000495,-00.031626*6F
"
1712237559.3366346,-033.693,+085.543,-102.139,-00.2315,+00.2221,-00.4301,+09.715,+00.801,+00.220,-00.004733,+00.001402,-00.029847,"$VNYMR,-033.693,+085.543,-102.139,-00.2315,+00.2221,-00.4301,+09.715,+00.801,+00.220,-00.004733,+00.001402,-00.029847*62
"
1712237559.363343,-033.597,+085.500,-102.052,-00.2291,+00.2339,-00.4315,+09.784,+00.821,+00.157,-00.004690,+00.003204,-00.028135,"$VNYMR,-033.597,+085.500,-102.052,-00.2291,+00.2339,-00.4315,+09.784,+00.821,+00.157,-00.004690,+00.003204,-00.028135*60
"
1712237559.3870456,-033.554,+085.459,-102.021,-00.2292,+00.2280,-00.4407,+09.747,+00.824,+00.223,-00.006472,+00.004979,-00.025359,"$VNYMR,-033.554,+085.459,-102.021,-00.2292,+00.2280,-00.4407,+09.747,+00.824,+00.223,-00.006472,+00.004979,-00.025359*67
"
1712237559.4105296,-033.592,+085.420,-102.071,-00.2314,+00.2269,-00.4408,+09.728,+00.767,+00.203,-00.007029,+00.006925,-00.025743,"$VNYMR,-033.592,+085.420,-102.071,-00.2314,+00.2269,-00.4408,+09.728,+00.767,+00.203,-00.007029,+00.006925,-00.025743*6D
"
1712237559.4381676,-033.657,+085.380,-102.145,-00.2337,+00.2222,-00.4262,+09.800,+00.812,+00.190,-00.006585,+00.007741,-00.025954,"$VNYMR,-033.657,+085.380,-102.145,-00.2337,+00.2222,-00.4262,+09.800,+00.812,+00.190,-00.006585,+00.007741,-00.025954*6E
"
1712237559.4623857,-033.732,+085.337,-102.228,-00.2303,+00.2304,-00.4368,+09.742,+00.746,+00.207,-00.006035,+00.008609,-00.029111,"$VNYMR,-033.732,+085.337,-102.228,-00.2303,+00.2304,-00.4368,+09.742,+00.746,+00.207,-00.006035,+00.008609,-00.029111*62
"
1712237559.4853058,-033.803,+085.292,-102.305,-00.2338,+00.2186,-00.4315,+09.728,+00.769,+00.203,-00.006170,+00.009537,-00.031453,"$VNYMR,-033.803,+085.292,-102.305,-00.2338,+00.2186,-00.4315,+09.728,+00.769,+00.203,-00.006170,+00.009537,-00.031453*65
"
1712237559.51017,-033.868,+085.243,-102.377,-00.2325,+00.2293,-00.4329,+09.827,+00.764,+00.220,-00.005064,+00.010510,-00.035033,"$VNYMR,-033.868,+085.243,-102.377,-00.2325,+00.2293,-00.4329,+09.827,+00.764,+00.220,-00.005064,+00.010510,-00.035033*65
"
1712237559.5353863,-033.982,+085.192,-102.502,-00.2325,+00.2316,-00.4383,+09.770,+00.794,+00.229,-00.005168,+00.012638,-00.033901,"$VNYMR,-033.982,+085.192,-102.502,-00.2325,+00.2316,-00.4383,+09.770,+00.794,+00.229,-00.005168,+00.012638,-00.033901*64
"
1712237559.5603666,-034.050,+085.140,-102.576,-00.2304,+00.2209,-00.4394,+09.795,+00.836,+00.201,-00.004867,+00.012812,-00.033765,"$VNYMR,-034.050,+085.140,-102.576,-00.2304,+00.2209,-00.4394,+09.795,+00.836,+00.201,-00.004867,+00.012812,-00.033765*68
"
1712237559.5853746,-034.162,+085.092,-102.695,-00.2347,+00.2305,-00.4264,+09.821,+00.834,+00.215,-00.003589,+00.014749,-00.030502,"$VNYMR,-034.162,+085.092,-102.695,-00.2347,+00.2305,-00.4264,+09.821,+00.834,+00.215,-00.003589,+00.014749,-00.030502*66
"
1712237559.6102867,-034.300,+085.047,-102.837,-00.2305,+00.2186,-00.4380,+09.685,+00.859,+00.229,-00.005244,+00.014216,-00.027299,"$VNYMR,-034.300,+085.047,-102.837,-00.2305,+00.2186,-00.4380,+09.685,+00.859,+00.229,-00.005244,+00.014216,-00.027299*62
"
1712237559.635493,-034.444,+085.006,-102.988,-00.2360,+00.2187,-00.4316,+09.824,+00.804,+00.210,-00.005429,+00.017925,-00.025056,"$VNYMR,-034.444,+085.006,-102.988,-00.2360,+00.2187,-00.4316,+09.824,+00.804,+00.210,-00.005429,+00.017925,-00.025056*69
"
1712237559.6606534,-034.626,+084.969,-103.175,-00.2347,+00.2305,-00.4304,+09.709,+00.793,+00.215,-00.006198,+00.017503,-00.023268,"$VNYMR,-034.626,+084.969,-103.175,-00.2347,+00.2305,-00.4304,+09.709,+00.793,+00.215,-00.006198,+00.017503,-00.023268*62
"
1712237559.685372,-034.834,+084.932,-103.385,-00.2358,+00.2293,-00.4384,+09.784,+00.780,+00.175,-00.005769,+00.020581,-00.023114,"$VNYMR,-034.834,+084.932,-103.385,-00.2358,+00.2293,-00.4384,+09.784,+00.780,+00.175,-00.005769,+00.020581,-00.023114*6B
"
1712237559.7103424,-035.044,+084.894,-103.601,-00.2328,+00.2163,-00.4381,+09.726,+00.778,+00.212,-00.004606,+00.021215,-00.024344,"$VNYMR,-035.044,+084.894,-103.601,-00.2328,+00.2163,-00.4381,+09.726,+00.778,+00.212,-00.004606,+00.021215,-00.024344*60
"
1712237559.7354715,-035.299,+084.855,-103.857,-00.2361,+00.2151,-00.4329,+09.786,+00.802,+00.220,-00.004229,+00.020938,-00.024558,"$VNYMR,-035.299,+084.855,-103.857,-00.2361,+00.2151,-00.4329,+09.786,+00.802,+00.220,-00.004229,+00.020938,-00.024558*62
"
1712237559.7632997,-035.547,+084.814,-104.110,-00.2317,+00.2127,-00.4447,+09.763,+00.822,+00.248,-00.004525,+00.022773,-00.026729,"$VNYMR,-035.547,+084.814,-104.110,-00.2317,+00.2127,-00.4447,+09.763,+00.822,+00.248,-00.004525,+00.022773,-00.026729*68
"
1712237559.7880073,-035.816,+084.774,-104.381,-00.2339,+00.2139,-00.4315,+09.766,+00.813,+00.223,-00.003787,+00.021666,-00.022665,"$VNYMR,-035.816,+084.774,-104.381,-00.2339,+00.2139,-00.4315,+09.766,+00.813,+00.223,-00.003787,+00.021666,-00.022665*6D
"
1712237559.8103046,-036.062,+084.737,-104.629,-00.2348,+00.2246,-00.4357,+09.760,+00.835,+00.212,-00.004160,+00.021627,-00.021171,"$VNYMR,-036.062,+084.737,-104.629,-00.2348,+00.2246,-00.4357,+09.760,+00.835,+00.212,-00.004160,+00.021627,-00.021171*62
"
1712237559.8351493,-036.295,+084.704,-104.861,-00.2337,+00.2222,-00.4462,+09.755,+00.813,+00.214,-00.003593,+00.021507,-00.018196,"$VNYMR,-036.295,+084.704,-104.861,-00.2337,+00.2222,-00.4462,+09.755,+00.813,+00.214,-00.003593,+00.021507,-00.018196*68
"
1712237559.8623376,-036.561,+084.676,-105.127,-00.2328,+00.2163,-00.4395,+09.725,+00.823,+00.219,-00.002401,+00.021361,-00.014499,"$VNYMR,-036.561,+084.676,-105.127,-00.2328,+00.2163,-00.4395,+09.725,+00.823,+00.219,-00.002401,+00.021361,-00.014499*6F
"
1712237559.88731,-036.808,+084.653,-105.377,-00.2350,+00.2127,-00.4289,+09.803,+00.827,+00.222,-00.004223,+00.021031,-00.011290,"$VNYMR,-036.808,+084.653,-105.377,-00.2350,+00.2127,-00.4289,+09.803,+00.827,+00.222,-00.004223,+00.021031,-00.011290*65
"
1712237559.9100878,-037.111,+084.632,-105.683,-00.2351,+00.2092,-00.4435,+09.765,+00.827,+00.207,-00.004409,+00.020942,-00.010122,"$VNYMR,-037.111,+084.632,-105.683,-00.2351,+00.2092,-00.4435,+09.765,+00.827,+00.207,-00.004409,+00.020942,-00.010122*62
"
1712237559.9378505,-037.375,+084.614,-105.946,-00.2350,+00.2163,-00.4369,+09.775,+00.807,+00.219,-00.003706,+00.023358,-00.008651,"$VNYMR,-037.375,+084.614,-105.946,-00.2350,+00.2163,-00.4369,+09.775,+00.807,+00.219,-00.003706,+00.023358,-00.008651*6F
"
1712237559.9604843,-037.645,+084.597,-106.213,-00.2348,+00.2246,-00.4343,+09.790,+00.832,+00.244,-00.002545,+00.025234,-00.008432,"$VNYMR,-037.645,+084.597,-106.213,-00.2348,+00.2246,-00.4343,+09.790,+00.832,+00.244,-00.002545,+00.025234,-00.008432*67
"
1712237559.987268,-037.931,+084.579,-106.500,-00.2326,+00.2222,-00.4422,+09.751,+00.781,+00.223,-00.003259,+00.023986,-00.007653,"$VNYMR,-037.931,+084.579,-106.500,-00.2326,+00.2222,-00.4422,+09.751,+00.781,+00.223,-00.003259,+00.023986,-00.007653*6A
"
1712237560.0122027,-038.199,+084.563,-106.770,-00.2325,+00.2269,-00.4422,+09.796,+00.824,+00.236,-00.002709,+00.022940,-00.007742,"$VNYMR,-038.199,+084.563,-106.770,-00.2325,+00.2269,-00.4422,+09.796,+00.824,+00.236,-00.002709,+00.022940,-00.007742*69
"
1712237560.035105,-038.507,+084.549,-107.077,-00.2339,+00.2151,-00.4302,+09.787,+00.808,+00.233,-00.001520,+00.022811,-00.005288,"$VNYMR,-038.507,+084.549,-107.077,-00.2339,+00.2151,-00.4302,+09.787,+00.808,+00.233,-00.001520,+00.022811,-00.005288*66
"
1712237560.0619724,-038.793,+084.539,-107.361,-00.2316,+00.2174,-00.4474,+09.776,+00.842,+00.234,-00.002485,+00.021528,-00.001364,"$VNYMR,-038.793,+084.539,-107.361,-00.2316,+00.2174,-00.4474,+09.776,+00.842,+00.234,-00.002485,+00.021528,-00.001364*6F
"
1712237560.0873072,-039.068,+084.533,-107.632,-00.2360,+00.2187,-00.4410,+09.794,+00.842,+00.245,-00.001840,+00.018825,+00.001066,"$VNYMR,-039.068,+084.533,-107.632,-00.2360,+00.2187,-00.4410,+09.794,+00.842,+00.245,-00.001840,+00.018825,+00.001066*6A
"
1712237560.1129367,-039.325,+084.533,-107.888,-00.2349,+00.2198,-00.4369,+09.763,+00.845,+00.221,-00.001095,+00.015890,+00.005329,"$VNYMR,-039.325,+084.533,-107.888,-00.2349,+00.2198,-00.4369,+09.763,+00.845,+00.221,-00.001095,+00.015890,+00.005329*61
"
1712237560.1368861,-039.586,+084.539,-108.143,-00.2315,+00.2245,-00.4448,+09.780,+00.801,+00.233,-00.001400,+00.014346,+00.007287,"$VNYMR,-039.586,+084.539,-108.143,-00.2315,+00.2245,-00.4448,+09.780,+00.801,+00.233,-00.001400,+00.014346,+00.007287*6B
"
1712237560.1599886,-039.874,+084.547,-108.427,-00.2338,+00.2198,-00.4462,+09.838,+00.814,+00.242,-00.000890,+00.014469,+00.008370,"$VNYMR,-039.874,+084.547,-108.427,-00.2338,+00.2198,-00.4462,+09.838,+00.814,+00.242,-00.000890,+00.014469,+00.008370*67
"
1712237560.1850116,-040.139,+084.555,-108.688,-00.2349,+00.2175,-00.4302,+09.721,+00.815,+00.218,-00.001023,+00.011632,+00.009249,"$VNYMR,-040.139,+084.555,-108.688,-00.2349,+00.2175,-00.4302,+09.721,+00.815,+00.218,-00.001023,+00.011632,+00.009249*62
"
1712237560.2101893,-040.394,+084.565,-108.938,-00.2305,+00.2162,-00.4433,+09.777,+00.779,+00.195,+00.000071,+00.015540,+00.010911,"$VNYMR,-040.394,+084.565,-108.938,-00.2305,+00.2162,-00.4433,+09.777,+00.779,+00.195,+00.000071,+00.015540,+00.010911*67
"
1712237560.2351913,-040.684,+084.575,-109.226,-00.2349,+00.2175,-00.4409,+09.730,+00.795,+00.252,-00.001184,+00.015761,+00.013061,"$VNYMR,-040.684,+084.575,-109.226,-00.2349,+00.2175,-00.4409,+09.730,+00.795,+00.252,-00.001184,+00.015761,+00.013061*69
"
1712237560.260338,-040.944,+084.587,-109.480,-00.2359,+00.2258,-00.4397,+09.919,+00.821,+00.191,-00.000156,+00.016282,+00.014844,"$VNYMR,-040.944,+084.587,-109.480,-00.2359,+00.2258,-00.4397,+09.919,+00.821,+00.191,-00.000156,+00.016282,+00.014844*64
"
1712237560.2872338,-041.212,+084.602,-109.741,-00.2315,+00.2221,-00.4475,+09.473,+00.776,+00.280,-00.000117,+00.011916,+00.015889,"$VNYMR,-041.212,+084.602,-109.741,-00.2315,+00.2221,-00.4475,+09.473,+00.776,+00.280,-00.000117,+00.011916,+00.015889*6B
"
1712237560.3129554,-041.479,+084.620,-110.002,-00.2327,+00.2186,-00.4448,+10.089,+00.858,+00.205,-00.000062,+00.013319,+00.019151,"$VNYMR,-041.479,+084.620,-110.002,-00.2327,+00.2186,-00.4448,+10.089,+00.858,+00.205,-00.000062,+00.013319,+00.019151*6A
"
1712237560.3349328,-041.756,+084.643,-110.272,-00.2337,+00.2222,-00.4369,+09.666,+00.819,+00.267,+00.001165,+00.009016,+00.023160,"$VNYMR,-041.756,+084.643,-110.272,-00.2337,+00.2222,-00.4369,+09.666,+00.819,+00.267,+00.001165,+00.009016,+00.023160*6F
"
1712237560.3599021,-041.984,+084.670,-110.494,-00.2328,+00.2163,-00.4461,+09.742,+00.815,+00.277,+00.001158,+00.004911,+00.023774,"$VNYMR,-041.984,+084.670,-110.494,-00.2328,+00.2163,-00.4461,+09.742,+00.815,+00.277,+00.001158,+00.004911,+00.023774*63
"
1712237560.3872366,-042.215,+084.700,-110.715,-00.2360,+00.2210,-00.4383,+09.840,+00.823,+00.279,+00.001522,+00.002438,+00.025040,"$VNYMR,-042.215,+084.700,-110.715,-00.2360,+00.2210,-00.4383,+09.840,+00.823,+00.279,+00.001522,+00.002438,+00.025040*66
"
1712237560.410104,-042.418,+084.730,-110.910,-00.2347,+00.2281,-00.4450,+09.824,+00.833,+00.251,+00.002203,+00.001466,+00.024498,"$VNYMR,-042.418,+084.730,-110.910,-00.2347,+00.2281,-00.4450,+09.824,+00.833,+00.251,+00.002203,+00.001466,+00.024498*67
"
1712237560.4380684,-042.542,+084.765,-111.027,-00.2314,+00.2304,-00.4476,+09.769,+00.776,+00.261,+00.002582,-00.002875,+00.025574,"$VNYMR,-042.542,+084.765,-111.027,-00.2314,+00.2304,-00.4476,+09.769,+00.776,+00.261,+00.002582,-00.002875,+00.025574*67
"
1712237560.4601805,-042.676,+084.800,-111.155,-00.2304,+00.2245,-00.4501,+09.735,+00.779,+00.228,+00.003113,-00.000707,+00.027161,"$VNYMR,-042.676,+084.800,-111.155,-00.2304,+00.2245,-00.4501,+09.735,+00.779,+00.228,+00.003113,-00.000707,+00.027161*63
"
1712237560.4848118,-042.817,+084.836,-111.289,-00.2338,+00.2175,-00.4355,+09.858,+00.804,+00.199,+00.002109,+00.001642,+00.025542,"$VNYMR,-042.817,+084.836,-111.289,-00.2338,+00.2175,-00.4355,+09.858,+00.804,+00.199,+00.002109,+00.001642,+00.025542*67
"
1712237560.5128307,-042.940,+084.873,-111.407,-00.2294,+00.2186,-00.4526,+09.715,+00.784,+00.249,+00.002251,+00.000218,+00.026976,"$VNYMR,-042.940,+084.873,-111.407,-00.2294,+00.2186,-00.4526,+09.715,+00.784,+00.249,+00.002251,+00.000218,+00.026976*6F
"
1712237560.5349143,-043.085,+084.911,-111.547,-00.2316,+00.2210,-00.4381,+09.840,+00.799,+00.263,+00.003567,-00.000028,+00.028468,"$VNYMR,-043.085,+084.911,-111.547,-00.2316,+00.2210,-00.4381,+09.840,+00.799,+00.263,+00.003567,-00.000028,+00.028468*61
"
1712237560.5597327,-043.208,+084.951,-111.664,-00.2314,+00.2281,-00.4409,+09.809,+00.820,+00.268,+00.003976,-00.004565,+00.029668,"$VNYMR,-043.208,+084.951,-111.664,-00.2314,+00.2281,-00.4409,+09.809,+00.820,+00.268,+00.003976,-00.004565,+00.029668*61
"
1712237560.5876722,-043.295,+084.995,-111.740,-00.2325,+00.2269,-00.4449,+09.746,+00.798,+00.255,+00.004584,-00.006685,+00.030954,"$VNYMR,-043.295,+084.995,-111.740,-00.2325,+00.2269,-00.4449,+09.746,+00.798,+00.255,+00.004584,-00.006685,+00.030954*6D
"
1712237560.6105282,-043.393,+085.041,-111.830,-00.2272,+00.2185,-00.4445,+09.833,+00.841,+00.267,+00.004601,-00.007145,+00.032323,"$VNYMR,-043.393,+085.041,-111.830,-00.2272,+00.2185,-00.4445,+09.833,+00.841,+00.267,+00.004601,-00.007145,+00.032323*66
"
1712237560.6347938,-043.432,+085.089,-111.859,-00.2315,+00.2245,-00.4341,+09.792,+00.815,+00.259,+00.003554,-00.010224,+00.031641,"$VNYMR,-043.432,+085.089,-111.859,-00.2315,+00.2245,-00.4341,+09.792,+00.815,+00.259,+00.003554,-00.010224,+00.031641*61
"
1712237560.659944,-043.443,+085.138,-111.859,-00.2282,+00.2233,-00.4486,+09.787,+00.799,+00.247,+00.004477,-00.012495,+00.031523,"$VNYMR,-043.443,+085.138,-111.859,-00.2282,+00.2233,-00.4486,+09.787,+00.799,+00.247,+00.004477,-00.012495,+00.031523*60
"
1712237560.6877313,-043.407,+085.187,-111.816,-00.2293,+00.2221,-00.4393,+09.790,+00.763,+00.256,+00.003576,-00.013229,+00.029667,"$VNYMR,-043.407,+085.187,-111.816,-00.2293,+00.2221,-00.4393,+09.790,+00.763,+00.256,+00.003576,-00.013229,+00.029667*61
"
1712237560.7130547,-043.374,+085.234,-111.776,-00.2291,+00.2304,-00.4381,+09.721,+00.758,+00.198,+00.004405,-00.015571,+00.029462,"$VNYMR,-043.374,+085.234,-111.776,-00.2291,+00.2304,-00.4381,+09.721,+00.758,+00.198,+00.004405,-00.015571,+00.029462*6D
"
1712237560.7348652,-043.277,+085.281,-111.673,-00.2258,+00.2303,-00.4446,+09.774,+00.789,+00.218,+00.005656,-00.015150,+00.028226,"$VNYMR,-043.277,+085.281,-111.673,-00.2258,+00.2303,-00.4446,+09.774,+00.789,+00.218,+00.005656,-00.015150,+00.028226*69
"
1712237560.759878,-043.195,+085.324,-111.583,-00.2248,+00.2256,-00.4418,+09.782,+00.793,+00.237,+00.004205,-00.015721,+00.026242,"$VNYMR,-043.195,+085.324,-111.583,-00.2248,+00.2256,-00.4418,+09.782,+00.793,+00.237,+00.004205,-00.015721,+00.026242*6F
"
1712237560.7847288,-043.078,+085.368,-111.460,-00.2283,+00.2173,-00.4352,+09.748,+00.811,+00.244,+00.003935,-00.014867,+00.026989,"$VNYMR,-043.078,+085.368,-111.460,-00.2283,+00.2173,-00.4352,+09.748,+00.811,+00.244,+00.003935,-00.014867,+00.026989*6B
"
1712237560.8131013,-042.952,+085.412,-111.323,-00.2259,+00.2279,-00.4392,+09.834,+00.804,+00.236,+00.004558,-00.017139,+00.026213,"$VNYMR,-042.952,+085.412,-111.323,-00.2259,+00.2279,-00.4392,+09.834,+00.804,+00.236,+00.004558,-00.017139,+00.026213*6F
"
1712237560.8349257,-042.858,+085.456,-111.222,-00.2292,+00.2256,-00.4354,+09.731,+00.792,+00.197,+00.004315,-00.015393,+00.028237,"$VNYMR,-042.858,+085.456,-111.222,-00.2292,+00.2256,-00.4354,+09.731,+00.792,+00.197,+00.004315,-00.015393,+00.028237*61
"
1712237560.8604813,-042.716,+085.500,-111.075,-00.2291,+00.2339,-00.4368,+09.804,+00.760,+00.187,+00.004256,-00.019169,+00.027099,"$VNYMR,-042.716,+085.500,-111.075,-00.2291,+00.2339,-00.4368,+09.804,+00.760,+00.187,+00.004256,-00.019169,+00.027099*63
"
1712237560.8882508,-042.548,+085.544,-110.901,-00.2258,+00.2303,-00.4446,+09.792,+00.771,+00.255,+00.004986,-00.019702,+00.025689,"$VNYMR,-042.548,+085.544,-110.901,-00.2258,+00.2303,-00.4446,+09.792,+00.771,+00.255,+00.004986,-00.019702,+00.025689*62
"
1712237560.9097834,-042.332,+085.587,-110.680,-00.2270,+00.2268,-00.4433,+09.750,+00.766,+00.237,+00.003981,-00.020526,+00.023535,"$VNYMR,-042.332,+085.587,-110.680,-00.2270,+00.2268,-00.4433,+09.750,+00.766,+00.237,+00.003981,-00.020526,+00.023535*64
"
1712237560.9348252,-042.098,+085.626,-110.446,-00.2304,+00.2245,-00.4301,+09.813,+00.755,+00.244,+00.004379,-00.021032,+00.021393,"$VNYMR,-042.098,+085.626,-110.446,-00.2304,+00.2245,-00.4301,+09.813,+00.755,+00.244,+00.004379,-00.021032,+00.021393*63
"
1712237560.9599624,-041.842,+085.661,-110.183,-00.2259,+00.2244,-00.4405,+09.783,+00.730,+00.226,+00.003552,-00.021920,+00.017576,"$VNYMR,-041.842,+085.661,-110.183,-00.2259,+00.2244,-00.4405,+09.783,+00.730,+00.226,+00.003552,-00.021920,+00.017576*60
"
1712237560.9847577,-041.528,+085.692,-109.866,-00.2259,+00.2268,-00.4392,+09.799,+00.779,+00.230,+00.004627,-00.023350,+00.016529,"$VNYMR,-041.528,+085.692,-109.866,-00.2259,+00.2268,-00.4392,+09.799,+00.779,+00.230,+00.004627,-00.023350,+00.016529*63
"
1712237561.0095744,-041.207,+085.721,-109.543,-00.2257,+00.2374,-00.4393,+09.805,+00.780,+00.184,+00.003122,-00.021876,+00.013663,"$VNYMR,-041.207,+085.721,-109.543,-00.2257,+00.2374,-00.4393,+09.805,+00.780,+00.184,+00.003122,-00.021876,+00.013663*69
"
1712237561.0372305,-040.874,+085.747,-109.208,-00.2257,+00.2350,-00.4487,+09.754,+00.798,+00.254,+00.002686,-00.022874,+00.012525,"$VNYMR,-040.874,+085.747,-109.208,-00.2257,+00.2350,-00.4487,+09.754,+00.798,+00.254,+00.002686,-00.022874,+00.012525*6F
"
1712237561.0625396,-040.536,+085.772,-108.871,-00.2258,+00.2315,-00.4419,+09.843,+00.806,+00.208,+00.001901,-00.020966,+00.012127,"$VNYMR,-040.536,+085.772,-108.871,-00.2258,+00.2315,-00.4419,+09.843,+00.806,+00.208,+00.001901,-00.020966,+00.012127*63
"
1712237561.0843794,-040.199,+085.797,-108.535,-00.2270,+00.2280,-00.4340,+09.783,+00.770,+00.219,+00.001882,-00.020910,+00.012472,"$VNYMR,-040.199,+085.797,-108.535,-00.2270,+00.2280,-00.4340,+09.783,+00.770,+00.219,+00.001882,-00.020910,+00.012472*6B
"
1712237561.1095932,-039.892,+085.821,-108.228,-00.2260,+00.2220,-00.4418,+09.741,+00.765,+00.214,+00.001702,-00.020436,+00.011611,"$VNYMR,-039.892,+085.821,-108.228,-00.2260,+00.2220,-00.4418,+09.741,+00.765,+00.214,+00.001702,-00.020436,+00.011611*62
"
1712237561.1396465,-039.539,+085.840,-107.874,-00.2291,+00.2327,-00.4355,+09.835,+00.761,+00.223,+00.001661,-00.020357,+00.008031,"$VNYMR,-039.539,+085.840,-107.874,-00.2291,+00.2327,-00.4355,+09.835,+00.761,+00.223,+00.001661,-00.020357,+00.008031*67
"
1712237561.1597154,-039.200,+085.856,-107.537,-00.2268,+00.2374,-00.4367,+09.749,+00.730,+00.218,+00.001325,-00.020052,+00.004427,"$VNYMR,-039.200,+085.856,-107.537,-00.2268,+00.2374,-00.4367,+09.749,+00.730,+00.218,+00.001325,-00.020052,+00.004427*62
"
1712237561.1861835,-038.849,+085.867,-107.186,-00.2269,+00.2339,-00.4394,+09.768,+00.753,+00.243,+00.001520,-00.021556,+00.002826,"$VNYMR,-038.849,+085.867,-107.186,-00.2269,+00.2339,-00.4394,+09.768,+00.753,+00.243,+00.001520,-00.021556,+00.002826*6C
"
1712237561.2097569,-038.468,+085.874,-106.809,-00.2258,+00.2339,-00.4353,+09.761,+00.744,+00.171,+00.000346,-00.021074,-00.001272,"$VNYMR,-038.468,+085.874,-106.809,-00.2258,+00.2339,-00.4353,+09.761,+00.744,+00.171,+00.000346,-00.021074,-00.001272*66
"
1712237561.2346976,-038.089,+085.875,-106.434,-00.2270,+00.2268,-00.4299,+09.811,+00.768,+00.204,+00.001080,-00.017557,-00.004363,"$VNYMR,-038.089,+085.875,-106.434,-00.2270,+00.2268,-00.4299,+09.811,+00.768,+00.204,+00.001080,-00.017557,-00.004363*6C
"
1712237561.2595892,-037.710,+085.873,-106.056,-00.2248,+00.2244,-00.4365,+09.765,+00.794,+00.227,+00.000080,-00.017447,-00.005722,"$VNYMR,-037.710,+085.873,-106.056,-00.2248,+00.2244,-00.4365,+09.765,+00.794,+00.227,+00.000080,-00.017447,-00.005722*6A
"
1712237561.2872193,-037.293,+085.870,-105.644,-00.2259,+00.2268,-00.4312,+09.770,+00.755,+00.188,+00.001096,-00.019535,-00.006179,"$VNYMR,-037.293,+085.870,-105.644,-00.2259,+00.2268,-00.4312,+09.770,+00.755,+00.188,+00.001096,-00.019535,-00.006179*67
"
1712237561.3100002,-036.929,+085.865,-105.282,-00.2279,+00.2374,-00.4341,+09.721,+00.771,+00.237,-00.001493,-00.017760,-00.005876,"$VNYMR,-036.929,+085.865,-105.282,-00.2279,+00.2374,-00.4341,+09.721,+00.771,+00.237,-00.001493,-00.017760,-00.005876*65
"
1712237561.3350224,-036.593,+085.858,-104.947,-00.2269,+00.2327,-00.4420,+09.834,+00.762,+00.223,-00.000855,-00.018588,-00.008171,"$VNYMR,-036.593,+085.858,-104.947,-00.2269,+00.2327,-00.4420,+09.834,+00.762,+00.223,-00.000855,-00.018588,-00.008171*61
"
1712237561.3596935,-036.266,+085.851,-104.626,-00.2292,+00.2256,-00.4380,+09.723,+00.750,+00.195,-00.002003,-00.013722,-00.008140,"$VNYMR,-036.266,+085.851,-104.626,-00.2292,+00.2256,-00.4380,+09.723,+00.750,+00.195,-00.002003,-00.013722,-00.008140*67
"
1712237561.3874278,-035.918,+085.840,-104.285,-00.2292,+00.2256,-00.4314,+09.751,+00.771,+00.202,-00.002627,-00.013051,-00.012166,"$VNYMR,-035.918,+085.840,-104.285,-00.2292,+00.2256,-00.4314,+09.751,+00.771,+00.202,-00.002627,-00.013051,-00.012166*61
"
1712237561.410066,-035.654,+085.824,-104.024,-00.2249,+00.2208,-00.4431,+09.789,+00.769,+00.227,-00.003326,-00.010259,-00.013885,"$VNYMR,-035.654,+085.824,-104.024,-00.2249,+00.2208,-00.4431,+09.789,+00.769,+00.227,-00.003326,-00.010259,-00.013885*62
"
1712237561.4371204,-035.380,+085.802,-103.759,-00.2269,+00.2327,-00.4340,+09.767,+00.757,+00.214,-00.002621,-00.010925,-00.017716,"$VNYMR,-035.380,+085.802,-103.759,-00.2269,+00.2327,-00.4340,+09.767,+00.757,+00.214,-00.002621,-00.010925,-00.017716*60
"
1712237561.4616823,-035.140,+085.776,-103.525,-00.2279,+00.2351,-00.4354,+09.783,+00.754,+00.210,-00.002697,-00.009515,-00.019825,"$VNYMR,-035.140,+085.776,-103.525,-00.2279,+00.2351,-00.4354,+09.783,+00.754,+00.210,-00.002697,-00.009515,-00.019825*68
"
1712237561.4872415,-034.882,+085.747,-103.273,-00.2258,+00.2327,-00.4353,+09.768,+00.783,+00.205,-00.004033,-00.008405,-00.022017,"$VNYMR,-034.882,+085.747,-103.273,-00.2258,+00.2327,-00.4353,+09.768,+00.783,+00.205,-00.004033,-00.008405,-00.022017*68
"
1712237561.51087,-034.669,+085.716,-103.069,-00.2282,+00.2244,-00.4366,+09.743,+00.813,+00.210,-00.003501,-00.007348,-00.023305,"$VNYMR,-034.669,+085.716,-103.069,-00.2282,+00.2244,-00.4366,+09.743,+00.813,+00.210,-00.003501,-00.007348,-00.023305*63
"
1712237561.534611,-034.459,+085.683,-102.867,-00.2293,+00.2221,-00.4260,+09.784,+00.789,+00.255,-00.003291,-00.007829,-00.022310,"$VNYMR,-034.459,+085.683,-102.867,-00.2293,+00.2221,-00.4260,+09.784,+00.789,+00.255,-00.003291,-00.007829,-00.022310*6D
"
1712237561.559893,-034.283,+085.650,-102.693,-00.2260,+00.2197,-00.4351,+09.793,+00.778,+00.206,-00.003608,-00.006557,-00.023554,"$VNYMR,-034.283,+085.650,-102.693,-00.2260,+00.2197,-00.4351,+09.793,+00.778,+00.206,-00.003608,-00.006557,-00.023554*6E
"
1712237561.5865495,-034.138,+085.617,-102.557,-00.2280,+00.2327,-00.4301,+09.747,+00.755,+00.202,-00.005266,-00.003948,-00.022376,"$VNYMR,-034.138,+085.617,-102.557,-00.2280,+00.2327,-00.4301,+09.747,+00.755,+00.202,-00.005266,-00.003948,-00.022376*6F
"
1712237561.6110213,-034.007,+085.583,-102.436,-00.2280,+00.2327,-00.4354,+09.781,+00.761,+00.210,-00.004878,-00.001560,-00.024495,"$VNYMR,-034.007,+085.583,-102.436,-00.2280,+00.2327,-00.4354,+09.781,+00.761,+00.210,-00.004878,-00.001560,-00.024495*68
"
1712237561.6355553,-033.959,+085.545,-102.393,-00.2236,+00.2315,-00.4432,+09.756,+00.757,+00.219,-00.004656,+00.000487,-00.026553,"$VNYMR,-033.959,+085.545,-102.393,-00.2236,+00.2315,-00.4432,+09.756,+00.757,+00.219,-00.004656,+00.000487,-00.026553*66
"
1712237561.6637132,-033.916,+085.504,-102.357,-00.2249,+00.2232,-00.4391,+09.762,+00.780,+00.215,-00.005074,+00.002915,-00.029163,"$VNYMR,-033.916,+085.504,-102.357,-00.2249,+00.2232,-00.4391,+09.762,+00.780,+00.215,-00.005074,+00.002915,-00.029163*68
"
1712237561.6846511,-033.903,+085.461,-102.351,-00.2327,+00.2174,-00.4261,+09.752,+00.766,+00.176,-00.005243,+00.007271,-00.030571,"$VNYMR,-033.903,+085.461,-102.351,-00.2327,+00.2174,-00.4261,+09.752,+00.766,+00.176,-00.005243,+00.007271,-00.030571*66
"
1712237561.710528,-033.942,+085.414,-102.397,-00.2271,+00.2197,-00.4379,+09.760,+00.788,+00.198,-00.005836,+00.007909,-00.030385,"$VNYMR,-033.942,+085.414,-102.397,-00.2271,+00.2197,-00.4379,+09.760,+00.788,+00.198,-00.005836,+00.007909,-00.030385*6C
"
1712237561.7345688,-033.965,+085.366,-102.426,-00.2293,+00.2209,-00.4353,+09.806,+00.777,+00.223,-00.005563,+00.008360,-00.029999,"$VNYMR,-033.965,+085.366,-102.426,-00.2293,+00.2209,-00.4353,+09.806,+00.777,+00.223,-00.005563,+00.008360,-00.029999*62
"
1712237561.7627323,-034.029,+085.319,-102.495,-00.2313,+00.2340,-00.4316,+09.770,+00.803,+00.238,-00.005274,+00.008738,-00.029613,"$VNYMR,-034.029,+085.319,-102.495,-00.2313,+00.2340,-00.4316,+09.770,+00.803,+00.238,-00.005274,+00.008738,-00.029613*6D
"
1712237561.7857585,-034.068,+085.273,-102.539,-00.2303,+00.2304,-00.4395,+09.780,+00.803,+00.242,-00.004906,+00.008576,-00.029038,"$VNYMR,-034.068,+085.273,-102.539,-00.2303,+00.2304,-00.4395,+09.780,+00.803,+00.242,-00.004906,+00.008576,-00.029038*62
"
1712237561.8104668,-034.097,+085.229,-102.579,-00.2281,+00.2280,-00.4340,+09.773,+00.827,+00.221,-00.005777,+00.009702,-00.028548,"$VNYMR,-034.097,+085.229,-102.579,-00.2281,+00.2280,-00.4340,+09.773,+00.827,+00.221,-00.005777,+00.009702,-00.028548*62
"
1712237561.835692,-034.163,+085.185,-102.655,-00.2304,+00.2209,-00.4260,+09.772,+00.792,+00.224,-00.005882,+00.008893,-00.028199,"$VNYMR,-034.163,+085.185,-102.655,-00.2304,+00.2209,-00.4260,+09.772,+00.792,+00.224,-00.005882,+00.008893,-00.028199*60
"
1712237561.8607948,-034.236,+085.143,-102.734,-00.2294,+00.2174,-00.4420,+09.790,+00.815,+00.205,-00.006360,+00.013551,-00.027875,"$VNYMR,-034.236,+085.143,-102.734,-00.2294,+00.2174,-00.4420,+09.790,+00.815,+00.205,-00.006360,+00.013551,-00.027875*6A
"
1712237561.8862553,-034.376,+085.099,-102.877,-00.2293,+00.2221,-00.4313,+09.746,+00.788,+00.224,-00.005079,+00.014371,-00.029044,"$VNYMR,-034.376,+085.099,-102.877,-00.2293,+00.2221,-00.4313,+09.746,+00.788,+00.224,-00.005079,+00.014371,-00.029044*6E
"
1712237561.9109783,-034.531,+085.055,-103.039,-00.2314,+00.2280,-00.4342,+09.761,+00.794,+00.194,-00.005316,+00.015529,-00.028615,"$VNYMR,-034.531,+085.055,-103.039,-00.2314,+00.2280,-00.4342,+09.761,+00.794,+00.194,-00.005316,+00.015529,-00.028615*6A
"
1712237561.9357493,-034.679,+085.010,-103.191,-00.2270,+00.2256,-00.4393,+09.797,+00.800,+00.176,-00.004012,+00.018266,-00.028674,"$VNYMR,-034.679,+085.010,-103.191,-00.2270,+00.2256,-00.4393,+09.797,+00.800,+00.176,-00.004012,+00.018266,-00.028674*64
"
1712237561.9605942,-034.884,+084.964,-103.399,-00.2272,+00.2173,-00.4418,+09.728,+00.828,+00.217,-00.006708,+00.018246,-00.028195,"$VNYMR,-034.884,+084.964,-103.399,-00.2272,+00.2173,-00.4418,+09.728,+00.828,+00.217,-00.006708,+00.018246,-00.028195*65
"
1712237561.9879699,-035.078,+084.920,-103.598,-00.2351,+00.2116,-00.4262,+09.785,+00.815,+00.217,-00.005028,+00.019349,-00.027105,"$VNYMR,-035.078,+084.920,-103.598,-00.2351,+00.2116,-00.4262,+09.785,+00.815,+00.217,-00.005028,+00.019349,-00.027105*66
"
1712237562.0139916,-035.321,+084.878,-103.844,-00.2284,+00.2114,-00.4378,+09.787,+00.824,+00.251,-00.003350,+00.021161,-00.025320,"$VNYMR,-035.321,+084.878,-103.844,-00.2284,+00.2114,-00.4378,+09.787,+00.824,+00.251,-00.003350,+00.021161,-00.025320*64
"
1712237562.035412,-035.581,+084.839,-104.106,-00.2294,+00.2174,-00.4353,+09.756,+00.819,+00.235,-00.005876,+00.020237,-00.022340,"$VNYMR,-035.581,+084.839,-104.106,-00.2294,+00.2174,-00.4353,+09.756,+00.819,+00.235,-00.005876,+00.020237,-00.022340*62
"
1712237562.0600216,-035.821,+084.803,-104.348,-00.2291,+00.2339,-00.4355,+09.798,+00.826,+00.205,-00.004286,+00.019431,-00.019783,"$VNYMR,-035.821,+084.803,-104.348,-00.2291,+00.2339,-00.4355,+09.798,+00.826,+00.205,-00.004286,+00.019431,-00.019783*6C
"
1712237562.0882647,-036.067,+084.770,-104.595,-00.2281,+00.2268,-00.4447,+09.752,+00.794,+00.227,-00.004364,+00.020119,-00.019403,"$VNYMR,-036.067,+084.770,-104.595,-00.2281,+00.2268,-00.4447,+09.752,+00.794,+00.227,-00.004364,+00.020119,-00.019403*6B
"
1712237562.1126585,-036.287,+084.739,-104.821,-00.2304,+00.2233,-00.4367,+09.789,+00.806,+00.218,-00.003988,+00.021283,-00.017512,"$VNYMR,-036.287,+084.739,-104.821,-00.2304,+00.2233,-00.4367,+09.789,+00.806,+00.218,-00.003988,+00.021283,-00.017512*60
"
1712237562.1353457,-036.548,+084.708,-105.086,-00.2315,+00.2245,-00.4381,+09.736,+00.796,+00.235,-00.003473,+00.021782,-00.017953,"$VNYMR,-036.548,+084.708,-105.086,-00.2315,+00.2245,-00.4381,+09.736,+00.796,+00.235,-00.003473,+00.021782,-00.017953*62
"
1712237562.1627262,-036.788,+084.679,-105.326,-00.2272,+00.2161,-00.4418,+09.778,+00.785,+00.219,-00.002948,+00.020533,-00.016818,"$VNYMR,-036.788,+084.679,-105.326,-00.2272,+00.2161,-00.4418,+09.778,+00.785,+00.219,-00.002948,+00.020533,-00.016818*64
"
1712237562.1850297,-037.074,+084.649,-105.612,-00.2317,+00.2150,-00.4354,+09.774,+00.817,+00.210,-00.002498,+00.023079,-00.017226,"$VNYMR,-037.074,+084.649,-105.612,-00.2317,+00.2150,-00.4354,+09.774,+00.817,+00.210,-00.002498,+00.023079,-00.017226*60
"
1712237562.2099874,-037.358,+084.621,-105.897,-00.2280,+00.2315,-00.4407,+09.773,+00.816,+00.244,-00.003904,+00.023041,-00.014207,"$VNYMR,-037.358,+084.621,-105.897,-00.2280,+00.2315,-00.4407,+09.773,+00.816,+00.244,-00.003904,+00.023041,-00.014207*68
"
1712237562.2352793,-037.636,+084.595,-106.172,-00.2304,+00.2233,-00.4461,+09.757,+00.811,+00.227,-00.004541,+00.022281,-00.011700,"$VNYMR,-037.636,+084.595,-106.172,-00.2304,+00.2233,-00.4461,+09.757,+00.811,+00.227,-00.004541,+00.022281,-00.011700*66
"
1712237562.2623644,-037.918,+084.575,-106.452,-00.2295,+00.2138,-00.4433,+09.780,+00.829,+00.220,-00.002966,+00.023955,-00.008483,"$VNYMR,-037.918,+084.575,-106.452,-00.2295,+00.2138,-00.4433,+09.780,+00.829,+00.220,-00.002966,+00.023955,-00.008483*60
"
1712237562.2852633,-038.193,+084.558,-106.726,-00.2283,+00.2162,-00.4299,+09.756,+00.819,+00.238,-00.004572,+00.022914,-00.005823,"$VNYMR,-038.193,+084.558,-106.726,-00.2283,+00.2162,-00.4299,+09.756,+00.819,+00.238,-00.004572,+00.022914,-00.005823*64
"
1712237562.3100815,-038.514,+084.545,-107.045,-00.2283,+00.2162,-00.4392,+09.805,+00.843,+00.191,-00.002961,+00.019722,-00.002505,"$VNYMR,-038.514,+084.545,-107.045,-00.2283,+00.2162,-00.4392,+09.805,+00.843,+00.191,-00.002961,+00.019722,-00.002505*69
"
1712237562.3381462,-038.794,+084.536,-107.323,-00.2317,+00.2115,-00.4353,+09.763,+00.823,+00.276,-00.003024,+00.018690,-00.001108,"$VNYMR,-038.794,+084.536,-107.323,-00.2317,+00.2115,-00.4353,+09.763,+00.823,+00.276,-00.003024,+00.018690,-00.001108*6C
"
1712237562.3603098,-039.085,+084.529,-107.611,-00.2315,+00.2221,-00.4368,+09.778,+00.804,+00.231,-00.002758,+00.019305,+00.000534,"$VNYMR,-039.085,+084.529,-107.611,-00.2315,+00.2221,-00.4368,+09.778,+00.804,+00.231,-00.002758,+00.019305,+00.000534*6B
"
1712237562.385298,-039.344,+084.526,-107.866,-00.2282,+00.2221,-00.4460,+09.758,+00.813,+00.253,-00.002283,+00.019044,+00.001501,"$VNYMR,-039.344,+084.526,-107.866,-00.2282,+00.2221,-00.4460,+09.758,+00.813,+00.253,-00.002283,+00.019044,+00.001501*66
"
1712237562.412236,-039.623,+084.522,-108.138,-00.2273,+00.2102,-00.4431,+09.789,+00.802,+00.234,-00.001404,+00.016551,+00.001202,"$VNYMR,-039.623,+084.522,-108.138,-00.2273,+00.2102,-00.4431,+09.789,+00.802,+00.234,-00.001404,+00.016551,+00.001202*6E
"
1712237562.436474,-039.890,+084.518,-108.400,-00.2315,+00.2221,-00.4315,+09.761,+00.826,+00.275,-00.000474,+00.017031,+00.002723,"$VNYMR,-039.890,+084.518,-108.400,-00.2315,+00.2221,-00.4315,+09.761,+00.826,+00.275,-00.000474,+00.017031,+00.002723*69
"
1712237562.4631672,-040.170,+084.518,-108.676,-00.2295,+00.2126,-00.4499,+09.829,+00.808,+00.241,-00.001265,+00.016100,+00.004720,"$VNYMR,-040.170,+084.518,-108.676,-00.2295,+00.2126,-00.4499,+09.829,+00.808,+00.241,-00.001265,+00.016100,+00.004720*65
"
1712237562.4850445,-040.493,+084.519,-108.993,-00.2305,+00.2198,-00.4340,+09.745,+00.827,+00.233,-00.001340,+00.015862,+00.007435,"$VNYMR,-040.493,+084.519,-108.993,-00.2305,+00.2198,-00.4340,+09.745,+00.827,+00.233,-00.001340,+00.015862,+00.007435*67
"
1712237562.5098503,-040.770,+084.527,-109.266,-00.2315,+00.2245,-00.4408,+09.725,+00.823,+00.243,-00.001113,+00.015121,+00.010838,"$VNYMR,-040.770,+084.527,-109.266,-00.2315,+00.2245,-00.4408,+09.725,+00.823,+00.243,-00.001113,+00.015121,+00.010838*65
"
1712237562.5354683,-041.084,+084.538,-109.575,-00.2315,+00.2221,-00.4475,+09.798,+00.817,+00.267,-00.000170,+00.013420,+00.014184,"$VNYMR,-041.084,+084.538,-109.575,-00.2315,+00.2221,-00.4475,+09.798,+00.817,+00.267,-00.000170,+00.013420,+00.014184*60
"
1712237562.5625703,-041.351,+084.555,-109.835,-00.2294,+00.2174,-00.4460,+09.766,+00.817,+00.208,+00.001326,+00.013349,+00.016589,"$VNYMR,-041.351,+084.555,-109.835,-00.2294,+00.2174,-00.4460,+09.766,+00.817,+00.208,+00.001326,+00.013349,+00.016589*6B
"
1712237562.5855184,-041.581,+084.574,-110.063,-00.2306,+00.2138,-00.4353,+09.825,+00.816,+00.262,+00.000973,+00.011989,+00.016789,"$VNYMR,-041.581,+084.574,-110.063,-00.2306,+00.2138,-00.4353,+09.825,+00.816,+00.262,+00.000973,+00.011989,+00.016789*6D
"
1712237562.610524,-041.831,+084.597,-110.306,-00.2292,+00.2256,-00.4461,+09.768,+00.801,+00.233,+00.000830,+00.010635,+00.019468,"$VNYMR,-041.831,+084.597,-110.306,-00.2292,+00.2256,-00.4461,+09.768,+00.801,+00.233,+00.000830,+00.010635,+00.019468*6F
"
1712237562.635417,-042.070,+084.620,-110.542,-00.2314,+00.2280,-00.4382,+09.790,+00.783,+00.226,+00.001194,+00.008233,+00.018971,"$VNYMR,-042.070,+084.620,-110.542,-00.2314,+00.2280,-00.4382,+09.790,+00.783,+00.226,+00.001194,+00.008233,+00.018971*69
"
1712237562.6603856,-042.264,+084.645,-110.735,-00.2304,+00.2221,-00.4394,+09.760,+00.823,+00.285,+00.002052,+00.007065,+00.019097,"$VNYMR,-042.264,+084.645,-110.735,-00.2304,+00.2221,-00.4394,+09.760,+00.823,+00.285,+00.002052,+00.007065,+00.019097*67
"
1712237562.6852674,-042.417,+084.671,-110.880,-00.2271,+00.2232,-00.4486,+09.781,+00.804,+00.247,+00.002631,+00.005250,+00.019985,"$VNYMR,-042.417,+084.671,-110.880,-00.2271,+00.2232,-00.4486,+09.781,+00.804,+00.247,+00.002631,+00.005250,+00.019985*6D
"
1712237562.7100606,-042.588,+084.700,-111.041,-00.2284,+00.2138,-00.4445,+09.757,+00.803,+00.263,+00.003622,+00.004407,+00.021779,"$VNYMR,-042.588,+084.700,-111.041,-00.2284,+00.2138,-00.4445,+09.757,+00.803,+00.263,+00.003622,+00.004407,+00.021779*6F
"
1712237562.735115,-042.791,+084.730,-111.236,-00.2293,+00.2209,-00.4407,+09.809,+00.851,+00.220,+00.002512,+00.001793,+00.025141,"$VNYMR,-042.791,+084.730,-111.236,-00.2293,+00.2209,-00.4407,+09.809,+00.851,+00.220,+00.002512,+00.001793,+00.025141*62
"
1712237562.7601109,-042.987,+084.763,-111.422,-00.2270,+00.2244,-00.4419,+09.760,+00.825,+00.248,+00.002819,+00.000798,+00.026289,"$VNYMR,-042.987,+084.763,-111.422,-00.2270,+00.2244,-00.4419,+09.760,+00.825,+00.248,+00.002819,+00.000798,+00.026289*60
"
1712237562.7848144,-043.155,+084.800,-111.580,-00.2305,+00.2174,-00.4407,+09.788,+00.816,+00.238,+00.002372,-00.000388,+00.028010,"$VNYMR,-043.155,+084.800,-111.580,-00.2305,+00.2174,-00.4407,+09.788,+00.816,+00.238,+00.002372,-00.000388,+00.028010*61
"
1712237562.8098412,-043.318,+084.841,-111.738,-00.2270,+00.2280,-00.4420,+09.782,+00.800,+00.226,+00.003752,-00.000433,+00.029886,"$VNYMR,-043.318,+084.841,-111.738,-00.2270,+00.2280,-00.4420,+09.782,+00.800,+00.226,+00.003752,-00.000433,+00.029886*64
"
1712237562.8348353,-043.438,+084.883,-111.846,-00.2258,+00.2291,-00.4553,+09.761,+00.804,+00.214,+00.003142,-00.000700,+00.029381,"$VNYMR,-043.438,+084.883,-111.846,-00.2258,+00.2291,-00.4553,+09.761,+00.804,+00.214,+00.003142,-00.000700,+00.029381*66
"
1712237562.862197,-043.524,+084.927,-111.926,-00.2261,+00.2185,-00.4458,+09.881,+00.799,+00.187,+00.003361,-00.004463,+00.030625,"$VNYMR,-043.524,+084.927,-111.926,-00.2261,+00.2185,-00.4458,+09.881,+00.799,+00.187,+00.003361,-00.004463,+00.030625*65
"
1712237562.884925,-043.622,+084.971,-112.012,-00.2293,+00.2209,-00.4367,+09.704,+00.787,+00.258,+00.004497,-00.004674,+00.028501,"$VNYMR,-043.622,+084.971,-112.012,-00.2293,+00.2209,-00.4367,+09.704,+00.787,+00.258,+00.004497,-00.004674,+00.028501*62
"
1712237562.9102223,-043.700,+085.013,-112.080,-00.2260,+00.2197,-00.4445,+09.845,+00.843,+00.274,+00.004023,-00.009203,+00.028302,"$VNYMR,-043.700,+085.013,-112.080,-00.2260,+00.2197,-00.4445,+09.845,+00.843,+00.274,+00.004023,-00.009203,+00.028302*6F
"
1712237562.9349875,-043.692,+085.057,-112.066,-00.2269,+00.2315,-00.4380,+09.768,+00.764,+00.200,+00.003766,-00.012023,+00.027925,"$VNYMR,-043.692,+085.057,-112.066,-00.2269,+00.2315,-00.4380,+09.768,+00.764,+00.200,+00.003766,-00.012023,+00.027925*60
"
1712237562.9602566,-043.699,+085.101,-112.066,-00.2280,+00.2304,-00.4380,+09.777,+00.759,+00.244,+00.005627,-00.009272,+00.028129,"$VNYMR,-043.699,+085.101,-112.066,-00.2280,+00.2304,-00.4380,+09.777,+00.759,+00.244,+00.005627,-00.009272,+00.028129*6B
"
1712237562.9879904,-043.664,+085.147,-112.024,-00.2247,+00.2291,-00.4432,+09.746,+00.801,+00.259,+00.005712,-00.011252,+00.030094,"$VNYMR,-043.664,+085.147,-112.024,-00.2247,+00.2291,-00.4432,+09.746,+00.801,+00.259,+00.005712,-00.011252,+00.030094*6B
"
1712237563.0127773,-043.643,+085.195,-111.992,-00.2260,+00.2197,-00.4458,+09.883,+00.839,+00.292,+00.005317,-00.015189,+00.030906,"$VNYMR,-043.643,+085.195,-111.992,-00.2260,+00.2197,-00.4458,+09.883,+00.839,+00.292,+00.005317,-00.015189,+00.030906*62
"
1712237563.0349638,-043.565,+085.245,-111.906,-00.2316,+00.2210,-00.4328,+09.723,+00.763,+00.245,+00.005724,-00.016425,+00.030191,"$VNYMR,-043.565,+085.245,-111.906,-00.2316,+00.2210,-00.4328,+09.723,+00.763,+00.245,+00.005724,-00.016425,+00.030191*67
"
1712237563.0597951,-043.502,+085.293,-111.833,-00.2249,+00.2232,-00.4458,+09.779,+00.807,+00.234,+00.005338,-00.015832,+00.029127,"$VNYMR,-043.502,+085.293,-111.833,-00.2249,+00.2232,-00.4458,+09.779,+00.807,+00.234,+00.005338,-00.015832,+00.029127*60
"
1712237563.0845835,-043.407,+085.341,-111.731,-00.2249,+00.2208,-00.4378,+09.771,+00.774,+00.213,+00.005297,-00.015714,+00.028929,"$VNYMR,-043.407,+085.341,-111.731,-00.2249,+00.2208,-00.4378,+09.771,+00.774,+00.213,+00.005297,-00.015714,+00.028929*65
"
1712237563.1122067,-043.346,+085.386,-111.664,-00.2291,+00.2316,-00.4381,+09.830,+00.782,+00.251,+00.005526,-00.014560,+00.027581,"$VNYMR,-043.346,+085.386,-111.664,-00.2291,+00.2316,-00.4381,+09.830,+00.782,+00.251,+00.005526,-00.014560,+00.027581*69
"
1712237563.1348298,-043.268,+085.429,-111.580,-00.2225,+00.2291,-00.4444,+09.737,+00.765,+00.222,+00.004292,-00.016457,+00.025729,"$VNYMR,-043.268,+085.429,-111.580,-00.2225,+00.2291,-00.4444,+09.737,+00.765,+00.222,+00.004292,-00.016457,+00.025729*69
"
1712237563.1600714,-043.119,+085.470,-111.424,-00.2272,+00.2185,-00.4445,+09.857,+00.800,+00.277,+00.004281,-00.016847,+00.024019,"$VNYMR,-043.119,+085.470,-111.424,-00.2272,+00.2185,-00.4445,+09.857,+00.800,+00.277,+00.004281,-00.016847,+00.024019*65
"
1712237563.1872609,-042.911,+085.511,-111.212,-00.2246,+00.2338,-00.4366,+09.710,+00.753,+00.241,+00.005173,-00.016200,+00.022754,"$VNYMR,-042.911,+085.511,-111.212,-00.2246,+00.2338,-00.4366,+09.710,+00.753,+00.241,+00.005173,-00.016200,+00.022754*6A
"
1712237563.2099764,-042.711,+085.550,-111.006,-00.2248,+00.2256,-00.4418,+09.858,+00.815,+00.241,+00.005590,-00.021629,+00.023254,"$VNYMR,-042.711,+085.550,-111.006,-00.2248,+00.2256,-00.4418,+09.858,+00.815,+00.241,+00.005590,-00.021629,+00.023254*67
"
1712237563.2350037,-042.495,+085.589,-110.787,-00.2226,+00.2232,-00.4363,+09.735,+00.752,+00.199,+00.004394,-00.021601,+00.023171,"$VNYMR,-042.495,+085.589,-110.787,-00.2226,+00.2232,-00.4363,+09.735,+00.752,+00.199,+00.004394,-00.021601,+00.023171*61
"
1712237563.2625601,-042.264,+085.628,-110.551,-00.2246,+00.2338,-00.4379,+09.778,+00.759,+00.236,+00.005372,-00.021555,+00.022130,"$VNYMR,-042.264,+085.628,-110.551,-00.2246,+00.2338,-00.4379,+09.778,+00.759,+00.236,+00.005372,-00.021555,+00.022130*65
"
1712237563.2865396,-042.006,+085.665,-110.293,-00.2234,+00.2397,-00.4499,+09.684,+00.745,+00.198,+00.003659,-00.022907,+00.018259,"$VNYMR,-042.006,+085.665,-110.293,-00.2234,+00.2397,-00.4499,+09.684,+00.745,+00.198,+00.003659,-00.022907,+00.018259*65
"
1712237563.312198,-041.685,+085.700,-109.969,-00.2227,+00.2220,-00.4457,+09.841,+00.729,+00.199,+00.002713,-00.024654,+00.018150,"$VNYMR,-041.685,+085.700,-109.969,-00.2227,+00.2220,-00.4457,+09.841,+00.729,+00.199,+00.002713,-00.024654,+00.018150*65
"
1712237563.3368402,-041.352,+085.733,-109.630,-00.2270,+00.2244,-00.4353,+09.718,+00.769,+00.194,+00.003949,-00.023615,+00.015349,"$VNYMR,-041.352,+085.733,-109.630,-00.2270,+00.2244,-00.4353,+09.718,+00.769,+00.194,+00.003949,-00.023615,+00.015349*65
"
1712237563.3600674,-041.018,+085.762,-109.294,-00.2226,+00.2255,-00.4470,+09.844,+00.761,+00.236,+00.002992,-00.021831,+00.012647,"$VNYMR,-041.018,+085.762,-109.294,-00.2226,+00.2255,-00.4470,+09.844,+00.761,+00.236,+00.002992,-00.021831,+00.012647*67
"
1712237563.3846104,-040.703,+085.787,-108.976,-00.2257,+00.2362,-00.4407,+09.727,+00.744,+00.172,+00.001650,-00.021130,+00.011438,"$VNYMR,-040.703,+085.787,-108.976,-00.2257,+00.2362,-00.4407,+09.727,+00.744,+00.172,+00.001650,-00.021130,+00.011438*68
"
1712237563.4096982,-040.357,+085.808,-108.629,-00.2247,+00.2315,-00.4339,+09.850,+00.761,+00.233,+00.002596,-00.020960,+00.009276,"$VNYMR,-040.357,+085.808,-108.629,-00.2247,+00.2315,-00.4339,+09.850,+00.761,+00.233,+00.002596,-00.020960,+00.009276*66
"
1712237563.4370954,-040.072,+085.826,-108.343,-00.2247,+00.2291,-00.4392,+09.698,+00.758,+00.252,+00.002241,-00.019896,+00.005891,"$VNYMR,-040.072,+085.826,-108.343,-00.2247,+00.2291,-00.4392,+09.698,+00.758,+00.252,+00.002241,-00.019896,+00.005891*6C
"
1712237563.4618258,-039.742,+085.842,-108.014,-00.2238,+00.2220,-00.4404,+09.795,+00.790,+00.205,+00.001516,-00.017151,+00.005790,"$VNYMR,-039.742,+085.842,-108.014,-00.2238,+00.2220,-00.4404,+09.795,+00.790,+00.205,+00.001516,-00.017151,+00.005790*61
"
1712237563.4846292,-039.370,+085.856,-107.643,-00.2248,+00.2256,-00.4298,+09.750,+00.779,+00.199,+00.001298,-00.021330,+00.004173,"$VNYMR,-039.370,+085.856,-107.643,-00.2248,+00.2256,-00.4298,+09.750,+00.779,+00.199,+00.001298,-00.021330,+00.004173*6C
"
1712237563.5099425,-039.013,+085.866,-107.286,-00.2238,+00.2220,-00.4404,+09.764,+00.771,+00.219,+00.001333,-00.020798,+00.002865,"$VNYMR,-039.013,+085.866,-107.286,-00.2238,+00.2220,-00.4404,+09.764,+00.771,+00.219,+00.001333,-00.020798,+00.002865*6A
"
1712237563.5350263,-038.591,+085.876,-106.866,-00.2270,+00.2280,-00.4313,+09.807,+00.751,+00.242,+00.001173,-00.019633,-00.000057,"$VNYMR,-038.591,+085.876,-106.866,-00.2270,+00.2280,-00.4313,+09.807,+00.751,+00.242,+00.001173,-00.019633,-00.000057*60
"
1712237563.5596836,-038.186,+085.881,-106.465,-00.2234,+00.2397,-00.4352,+09.751,+00.782,+00.225,+00.000110,-00.018716,-00.001370,"$VNYMR,-038.186,+085.881,-106.465,-00.2234,+00.2397,-00.4352,+09.751,+00.782,+00.225,+00.000110,-00.018716,-00.001370*60
"
1712237563.584993,-037.771,+085.882,-106.053,-00.2224,+00.2326,-00.4445,+09.755,+00.756,+00.228,-00.000617,-00.018967,-00.005153,"$VNYMR,-037.771,+085.882,-106.053,-00.2224,+00.2326,-00.4445,+09.755,+00.756,+00.228,-00.000617,-00.018967,-00.005153*60
"
1712237563.6122935,-037.412,+085.877,-105.700,-00.2214,+00.2314,-00.4444,+09.767,+00.771,+00.193,-00.000290,-00.016981,-00.007349,"$VNYMR,-037.412,+085.877,-105.700,-00.2214,+00.2314,-00.4444,+09.767,+00.771,+00.193,-00.000290,-00.016981,-00.007349*6C
"
1712237563.6348002,-037.032,+085.870,-105.327,-00.2226,+00.2243,-00.4243,+09.757,+00.759,+00.211,-00.000895,-00.014460,-00.009736,"$VNYMR,-037.032,+085.870,-105.327,-00.2226,+00.2243,-00.4243,+09.757,+00.759,+00.211,-00.000895,-00.014460,-00.009736*62
"
1712237563.6596603,-036.673,+085.858,-104.971,-00.2227,+00.2208,-00.4403,+09.742,+00.770,+00.193,-00.001109,-00.015806,-00.011464,"$VNYMR,-036.673,+085.858,-104.971,-00.2227,+00.2208,-00.4403,+09.742,+00.770,+00.193,-00.001109,-00.015806,-00.011464*65
"
1712237563.684781,-036.396,+085.843,-104.700,-00.2281,+00.2292,-00.4287,+09.768,+00.749,+00.227,-00.003078,-00.012282,-00.011629,"$VNYMR,-036.396,+085.843,-104.700,-00.2281,+00.2292,-00.4287,+09.768,+00.749,+00.227,-00.003078,-00.012282,-00.011629*6D
"
1712237563.711856,-036.115,+085.827,-104.426,-00.2235,+00.2338,-00.4338,+09.769,+00.755,+00.212,-00.001336,-00.010880,-00.013436,"$VNYMR,-036.115,+085.827,-104.426,-00.2235,+00.2338,-00.4338,+09.769,+00.755,+00.212,-00.001336,-00.010880,-00.013436*6F
"
1712237563.7349012,-035.832,+085.808,-104.150,-00.2236,+00.2326,-00.4405,+09.781,+00.804,+00.230,-00.001952,-00.010424,-00.015087,"$VNYMR,-035.832,+085.808,-104.150,-00.2236,+00.2326,-00.4405,+09.781,+00.804,+00.230,-00.001952,-00.010424,-00.015087*63
"
1712237563.7622864,-035.546,+085.787,-103.872,-00.2226,+00.2255,-00.4404,+09.743,+00.776,+00.241,-00.002507,-00.009773,-00.016745,"$VNYMR,-035.546,+085.787,-103.872,-00.2226,+00.2255,-00.4404,+09.743,+00.776,+00.241,-00.002507,-00.009773,-00.016745*60
"
1712237563.7846751,-035.305,+085.763,-103.639,-00.2279,+00.2351,-00.4301,+09.800,+00.758,+00.212,-00.002590,-00.007197,-00.018837,"$VNYMR,-035.305,+085.763,-103.639,-00.2279,+00.2351,-00.4301,+09.800,+00.758,+00.212,-00.002590,-00.007197,-00.018837*6D
"
1712237563.8095934,-035.078,+085.736,-103.416,-00.2214,+00.2279,-00.4403,+09.720,+00.761,+00.199,-00.004465,-00.007390,-00.020658,"$VNYMR,-035.078,+085.736,-103.416,-00.2214,+00.2279,-00.4403,+09.720,+00.761,+00.199,-00.004465,-00.007390,-00.020658*6D
"
1712237563.8347514,-034.860,+085.707,-103.207,-00.2271,+00.2221,-00.4312,+09.808,+00.762,+00.256,-00.004531,-00.004729,-00.022208,"$VNYMR,-034.860,+085.707,-103.207,-00.2271,+00.2221,-00.4312,+09.808,+00.762,+00.256,-00.004531,-00.004729,-00.022208*60
"
1712237563.861793,-034.699,+085.672,-103.053,-00.2258,+00.2303,-00.4299,+09.749,+00.772,+00.196,-00.004278,-00.005319,-00.024724,"$VNYMR,-034.699,+085.672,-103.053,-00.2258,+00.2303,-00.4299,+09.749,+00.772,+00.196,-00.004278,-00.005319,-00.024724*65
"
1712237563.8847442,-034.532,+085.637,-102.892,-00.2235,+00.2350,-00.4445,+09.769,+00.802,+00.156,-00.004281,-00.003640,-00.024800,"$VNYMR,-034.532,+085.637,-102.892,-00.2235,+00.2350,-00.4445,+09.769,+00.802,+00.156,-00.004281,-00.003640,-00.024800*6E
"
1712237563.9120305,-034.406,+085.599,-102.778,-00.2235,+00.2362,-00.4392,+09.761,+00.774,+00.181,-00.005399,-00.000145,-00.025791,"$VNYMR,-034.406,+085.599,-102.778,-00.2235,+00.2362,-00.4392,+09.761,+00.774,+00.181,-00.005399,-00.000145,-00.025791*6A
"
1712237563.9349146,-034.305,+085.559,-102.686,-00.2305,+00.2186,-00.4220,+09.764,+00.787,+00.165,-00.004605,-00.000487,-00.027638,"$VNYMR,-034.305,+085.559,-102.686,-00.2305,+00.2186,-00.4220,+09.764,+00.787,+00.165,-00.004605,-00.000487,-00.027638*69
"
1712237563.961822,-034.234,+085.518,-102.619,-00.2249,+00.2197,-00.4391,+09.775,+00.765,+00.180,-00.004598,+00.001344,-00.028144,"$VNYMR,-034.234,+085.518,-102.619,-00.2249,+00.2197,-00.4391,+09.775,+00.765,+00.180,-00.004598,+00.001344,-00.028144*67
"
1712237563.9845235,-034.214,+085.476,-102.607,-00.2260,+00.2209,-00.4298,+09.770,+00.777,+00.210,-00.004246,+00.003837,-00.027981,"$VNYMR,-034.214,+085.476,-102.607,-00.2260,+00.2209,-00.4298,+09.770,+00.777,+00.210,-00.004246,+00.003837,-00.027981*6F
"
1712237564.0119414,-034.214,+085.433,-102.617,-00.2281,+00.2292,-00.4340,+09.792,+00.800,+00.170,-00.004315,+00.004330,-00.028325,"$VNYMR,-034.214,+085.433,-102.617,-00.2281,+00.2292,-00.4340,+09.792,+00.800,+00.170,-00.004315,+00.004330,-00.028325*67
"
1712237564.0345352,-034.260,+085.389,-102.670,-00.2281,+00.2280,-00.4380,+09.731,+00.814,+00.218,-00.004411,+00.006803,-00.028989,"$VNYMR,-034.260,+085.389,-102.670,-00.2281,+00.2280,-00.4380,+09.731,+00.814,+00.218,-00.004411,+00.006803,-00.028989*6B
"
1712237564.0622053,-034.296,+085.344,-102.716,-00.2249,+00.2197,-00.4404,+09.793,+00.789,+00.213,-00.004662,+00.010552,-00.028946,"$VNYMR,-034.296,+085.344,-102.716,-00.2249,+00.2197,-00.4404,+09.793,+00.789,+00.213,-00.004662,+00.010552,-00.028946*6B
"
1712237564.08619,-034.326,+085.299,-102.757,-00.2316,+00.2198,-00.4248,+09.729,+00.804,+00.235,-00.004753,+00.008054,-00.029943,"$VNYMR,-034.326,+085.299,-102.757,-00.2316,+00.2198,-00.4248,+09.729,+00.804,+00.235,-00.004753,+00.008054,-00.029943*6D
"
1712237564.1094823,-034.387,+085.253,-102.822,-00.2283,+00.2185,-00.4406,+09.775,+00.772,+00.174,-00.005720,+00.011274,-00.032460,"$VNYMR,-034.387,+085.253,-102.822,-00.2283,+00.2185,-00.4406,+09.775,+00.772,+00.174,-00.005720,+00.011274,-00.032460*6A
"
1712237564.1345987,-034.462,+085.206,-102.903,-00.2272,+00.2185,-00.4379,+09.767,+00.801,+00.244,-00.005501,+00.009919,-00.030245,"$VNYMR,-034.462,+085.206,-102.903,-00.2272,+00.2185,-00.4379,+09.767,+00.801,+00.244,-00.005501,+00.009919,-00.030245*66
"
1712237564.1622183,-034.564,+085.159,-103.009,-00.2292,+00.2268,-00.4341,+09.776,+00.781,+00.189,-00.004985,+00.013746,-00.030159,"$VNYMR,-034.564,+085.159,-103.009,-00.2292,+00.2268,-00.4341,+09.776,+00.781,+00.189,-00.004985,+00.013746,-00.030159*6A
"
1712237564.1846988,-034.686,+085.113,-103.139,-00.2270,+00.2244,-00.4406,+09.806,+00.832,+00.219,-00.005401,+00.015080,-00.029320,"$VNYMR,-034.686,+085.113,-103.139,-00.2270,+00.2244,-00.4406,+09.806,+00.832,+00.219,-00.005401,+00.015080,-00.029320*65
"
1712237564.2096446,-034.815,+085.069,-103.271,-00.2294,+00.2174,-00.4366,+09.732,+00.796,+00.197,-00.004590,+00.016264,-00.029104,"$VNYMR,-034.815,+085.069,-103.271,-00.2294,+00.2174,-00.4366,+09.732,+00.796,+00.197,-00.004590,+00.016264,-00.029104*62
"
1712237564.2365732,-034.975,+085.026,-103.436,-00.2237,+00.2232,-00.4257,+09.781,+00.796,+00.224,-00.005413,+00.016374,-00.027028,"$VNYMR,-034.975,+085.026,-103.436,-00.2237,+00.2232,-00.4257,+09.781,+00.796,+00.224,-00.005413,+00.016374,-00.027028*69
"
1712237564.2599635,-035.185,+084.984,-103.649,-00.2295,+00.2126,-00.4379,+09.791,+00.800,+00.188,-00.005603,+00.020155,-00.026157,"$VNYMR,-035.185,+084.984,-103.649,-00.2295,+00.2126,-00.4379,+09.791,+00.800,+00.188,-00.005603,+00.020155,-00.026157*6D
"
1712237564.2845988,-035.395,+084.943,-103.860,-00.2316,+00.2186,-00.4314,+09.747,+00.801,+00.238,-00.003934,+00.019238,-00.025267,"$VNYMR,-035.395,+084.943,-103.860,-00.2316,+00.2186,-00.4314,+09.747,+00.801,+00.238,-00.003934,+00.019238,-00.025267*65
"
1712237564.3097415,-035.634,+084.902,-104.103,-00.2303,+00.2257,-00.4394,+09.784,+00.806,+00.214,-00.005454,+00.019537,-00.025541,"$VNYMR,-035.634,+084.902,-104.103,-00.2303,+00.2257,-00.4394,+09.784,+00.806,+00.214,-00.005454,+00.019537,-00.025541*66
"
1712237564.336442,-035.865,+084.862,-104.339,-00.2292,+00.2256,-00.4434,+09.841,+00.817,+00.234,-00.004110,+00.020346,-00.023718,"$VNYMR,-035.865,+084.862,-104.339,-00.2292,+00.2256,-00.4434,+09.841,+00.817,+00.234,-00.004110,+00.020346,-00.023718*67
"
1712237564.3626592,-036.098,+084.823,-104.575,-00.2283,+00.2162,-00.4379,+09.767,+00.820,+00.232,-00.004225,+00.020855,-00.023213,"$VNYMR,-036.098,+084.823,-104.575,-00.2283,+00.2162,-00.4379,+09.767,+00.820,+00.232,-00.004225,+00.020855,-00.023213*64
"
1712237564.3847106,-036.309,+084.787,-104.789,-00.2305,+00.2162,-00.4300,+09.776,+00.816,+00.221,-00.004529,+00.020433,-00.020900,"$VNYMR,-036.309,+084.787,-104.789,-00.2305,+00.2162,-00.4300,+09.776,+00.816,+00.221,-00.004529,+00.020433,-00.020900*64
"
1712237564.4095514,-036.535,+084.752,-105.019,-00.2283,+00.2162,-00.4392,+09.708,+00.798,+00.228,-00.003502,+00.021023,-00.021031,"$VNYMR,-036.535,+084.752,-105.019,-00.2283,+00.2162,-00.4392,+09.708,+00.798,+00.228,-00.003502,+00.021023,-00.021031*67
"
1712237564.4395897,-036.792,+084.720,-105.279,-00.2294,+00.2186,-00.4380,+09.794,+00.819,+00.231,-00.004515,+00.021735,-00.018073,"$VNYMR,-036.792,+084.720,-105.279,-00.2294,+00.2186,-00.4380,+09.794,+00.819,+00.231,-00.004515,+00.021735,-00.018073*60
"
1712237564.459387,-037.032,+084.690,-105.518,-00.2303,+00.2304,-00.4382,+09.792,+00.809,+00.244,-00.004397,+00.021054,-00.016539,"$VNYMR,-037.032,+084.690,-105.518,-00.2303,+00.2304,-00.4382,+09.792,+00.809,+00.244,-00.004397,+00.021054,-00.016539*6F
"
1712237564.4864302,-037.297,+084.663,-105.784,-00.2272,+00.2161,-00.4432,+09.754,+00.815,+00.217,-00.003477,+00.020788,-00.015879,"$VNYMR,-037.297,+084.663,-105.784,-00.2272,+00.2161,-00.4432,+09.754,+00.815,+00.217,-00.003477,+00.020788,-00.015879*61
"
1712237564.50946,-037.539,+084.639,-106.027,-00.2283,+00.2150,-00.4405,+09.762,+00.802,+00.239,-00.003023,+00.020885,-00.011919,"$VNYMR,-037.539,+084.639,-106.027,-00.2283,+00.2150,-00.4405,+09.762,+00.802,+00.239,-00.003023,+00.020885,-00.011919*63
"
1712237564.5342731,-037.810,+084.617,-106.298,-00.2327,+00.2198,-00.4328,+09.804,+00.830,+00.258,-00.002970,+00.023570,-00.009904,"$VNYMR,-037.810,+084.617,-106.298,-00.2327,+00.2198,-00.4328,+09.804,+00.830,+00.258,-00.002970,+00.023570,-00.009904*6A
"
1712237564.5592382,-038.115,+084.597,-106.601,-00.2273,+00.2138,-00.4431,+09.733,+00.800,+00.241,-00.003765,+00.022617,-00.008759,"$VNYMR,-038.115,+084.597,-106.601,-00.2273,+00.2138,-00.4431,+09.733,+00.800,+00.241,-00.003765,+00.022617,-00.008759*6C
"
1712237564.5843754,-038.395,+084.580,-106.883,-00.2316,+00.2186,-00.4394,+09.766,+00.828,+00.249,-00.003360,+00.022987,-00.007722,"$VNYMR,-038.395,+084.580,-106.883,-00.2316,+00.2186,-00.4394,+09.766,+00.828,+00.249,-00.003360,+00.022987,-00.007722*6D
"
1712237564.6094105,-038.696,+084.564,-107.181,-00.2292,+00.2256,-00.4394,+09.764,+00.816,+00.219,-00.003476,+00.022367,-00.005742,"$VNYMR,-038.696,+084.564,-107.181,-00.2292,+00.2256,-00.4394,+09.764,+00.816,+00.219,-00.003476,+00.022367,-00.005742*62
"
1712237564.634163,-038.999,+084.552,-107.482,-00.2260,+00.2197,-00.4418,+09.757,+00.812,+00.237,-00.001338,+00.020497,-00.002485,"$VNYMR,-038.999,+084.552,-107.482,-00.2260,+00.2197,-00.4418,+09.757,+00.812,+00.237,-00.001338,+00.020497,-00.002485*63
"
1712237564.65918,-039.307,+084.541,-107.793,-00.2273,+00.2138,-00.4391,+09.800,+00.805,+00.268,-00.002631,+00.020202,-00.002950,"$VNYMR,-039.307,+084.541,-107.793,-00.2273,+00.2138,-00.4391,+09.800,+00.805,+00.268,-00.002631,+00.020202,-00.002950*6E
"
1712237564.6843207,-039.575,+084.535,-108.063,-00.2295,+00.2103,-00.4299,+09.793,+00.806,+00.261,-00.002150,+00.020858,+00.000232,"$VNYMR,-039.575,+084.535,-108.063,-00.2295,+00.2103,-00.4299,+09.793,+00.806,+00.261,-00.002150,+00.020858,+00.000232*61
"
1712237564.711761,-039.848,+084.532,-108.335,-00.2294,+00.2150,-00.4446,+09.769,+00.826,+00.296,-00.000673,+00.017697,+00.002272,"$VNYMR,-039.848,+084.532,-108.335,-00.2294,+00.2150,-00.4446,+09.769,+00.826,+00.296,-00.000673,+00.017697,+00.002272*62
"
1712237564.734261,-040.087,+084.532,-108.569,-00.2305,+00.2162,-00.4340,+09.802,+00.835,+00.216,-00.001187,+00.016608,+00.004066,"$VNYMR,-040.087,+084.532,-108.569,-00.2305,+00.2162,-00.4340,+09.802,+00.835,+00.216,-00.001187,+00.016608,+00.004066*62
"
1712237564.7595425,-040.353,+084.534,-108.831,-00.2281,+00.2268,-00.4367,+09.737,+00.814,+00.210,-00.001151,+00.016161,+00.006091,"$VNYMR,-040.353,+084.534,-108.831,-00.2281,+00.2268,-00.4367,+09.737,+00.814,+00.210,-00.001151,+00.016161,+00.006091*6A
"
1712237564.7842638,-040.603,+084.540,-109.076,-00.2293,+00.2221,-00.4487,+09.797,+00.803,+00.211,-00.000583,+00.016009,+00.008099,"$VNYMR,-040.603,+084.540,-109.076,-00.2293,+00.2221,-00.4487,+09.797,+00.803,+00.211,-00.000583,+00.016009,+00.008099*6A
"
1712237564.8091507,-040.891,+084.547,-109.358,-00.2284,+00.2103,-00.4405,+09.772,+00.834,+00.234,-00.000735,+00.016203,+00.011081,"$VNYMR,-040.891,+084.547,-109.358,-00.2284,+00.2103,-00.4405,+09.772,+00.834,+00.234,-00.000735,+00.016203,+00.011081*66
"
1712237564.834189,-041.138,+084.558,-109.600,-00.2327,+00.2186,-00.4408,+09.794,+00.827,+00.225,-00.000307,+00.016467,+00.012002,"$VNYMR,-041.138,+084.558,-109.600,-00.2327,+00.2186,-00.4408,+09.794,+00.827,+00.225,-00.000307,+00.016467,+00.012002*60
"
1712237564.8617964,-041.428,+084.569,-109.884,-00.2271,+00.2197,-00.4459,+09.755,+00.800,+00.266,-00.000925,+00.013684,+00.013471,"$VNYMR,-041.428,+084.569,-109.884,-00.2271,+00.2197,-00.4459,+09.755,+00.800,+00.266,-00.000925,+00.013684,+00.013471*6C
"
1712237564.8841705,-041.698,+084.584,-110.148,-00.2293,+00.2245,-00.4380,+09.811,+00.796,+00.231,+00.000493,+00.012769,+00.015690,"$VNYMR,-041.698,+084.584,-110.148,-00.2293,+00.2245,-00.4380,+09.811,+00.796,+00.231,+00.000493,+00.012769,+00.015690*67
"
1712237564.9100862,-041.913,+084.603,-110.360,-00.2292,+00.2292,-00.4381,+09.734,+00.811,+00.263,+00.001343,+00.008547,+00.016960,"$VNYMR,-041.913,+084.603,-110.360,-00.2292,+00.2292,-00.4381,+09.734,+00.811,+00.263,+00.001343,+00.008547,+00.016960*67
"
1712237564.9352021,-042.158,+084.623,-110.600,-00.2293,+00.2233,-00.4434,+09.828,+00.804,+00.238,+00.001798,+00.008486,+00.019129,"$VNYMR,-042.158,+084.623,-110.600,-00.2293,+00.2233,-00.4434,+09.828,+00.804,+00.238,+00.001798,+00.008486,+00.019129*6D
"
1712237564.9603257,-042.385,+084.646,-110.819,-00.2284,+00.2114,-00.4418,+09.750,+00.814,+00.247,+00.002030,+00.006617,+00.020578,"$VNYMR,-042.385,+084.646,-110.819,-00.2284,+00.2114,-00.4418,+09.750,+00.814,+00.247,+00.002030,+00.006617,+00.020578*65
"
1712237564.9841118,-042.608,+084.673,-111.034,-00.2316,+00.2162,-00.4354,+09.840,+00.810,+00.210,+00.002339,+00.007188,+00.021335,"$VNYMR,-042.608,+084.673,-111.034,-00.2316,+00.2162,-00.4354,+09.840,+00.810,+00.210,+00.002339,+00.007188,+00.021335*6D
"
1712237565.0091815,-042.792,+084.703,-111.209,-00.2306,+00.2150,-00.4473,+09.756,+00.802,+00.267,+00.001702,+00.004587,+00.023638,"$VNYMR,-042.792,+084.703,-111.209,-00.2306,+00.2150,-00.4473,+09.756,+00.802,+00.267,+00.001702,+00.004587,+00.023638*61
"
1712237565.034163,-042.997,+084.734,-111.404,-00.2284,+00.2126,-00.4378,+09.774,+00.802,+00.277,+00.003080,+00.002057,+00.024255,"$VNYMR,-042.997,+084.734,-111.404,-00.2284,+00.2126,-00.4378,+09.774,+00.802,+00.277,+00.003080,+00.002057,+00.024255*6B
"
1712237565.0601776,-043.135,+084.769,-111.534,-00.2292,+00.2256,-00.4407,+09.774,+00.828,+00.234,+00.002494,+00.001362,+00.025635,"$VNYMR,-043.135,+084.769,-111.534,-00.2292,+00.2256,-00.4407,+09.774,+00.828,+00.234,+00.002494,+00.001362,+00.025635*66
"
1712237565.0874739,-043.254,+084.806,-111.645,-00.2270,+00.2256,-00.4459,+09.825,+00.780,+00.240,+00.002827,+00.000611,+00.027145,"$VNYMR,-043.254,+084.806,-111.645,-00.2270,+00.2256,-00.4459,+09.825,+00.780,+00.240,+00.002827,+00.000611,+00.027145*65
"
1712237565.112511,-043.385,+084.844,-111.770,-00.2284,+00.2126,-00.4445,+09.790,+00.797,+00.246,+00.002834,-00.001093,+00.026912,"$VNYMR,-043.385,+084.844,-111.770,-00.2284,+00.2126,-00.4445,+09.790,+00.797,+00.246,+00.002834,-00.001093,+00.026912*68
"
1712237565.1339805,-043.501,+084.883,-111.876,-00.2280,+00.2315,-00.4327,+09.811,+00.820,+00.267,+00.003415,-00.003202,+00.027863,"$VNYMR,-043.501,+084.883,-111.876,-00.2280,+00.2315,-00.4327,+09.811,+00.820,+00.267,+00.003415,-00.003202,+00.027863*63
"
1712237565.1600494,-043.602,+084.923,-111.968,-00.2249,+00.2197,-00.4431,+09.787,+00.800,+00.273,+00.004236,-00.005589,+00.028790,"$VNYMR,-043.602,+084.923,-111.968,-00.2249,+00.2197,-00.4431,+09.787,+00.800,+00.273,+00.004236,-00.005589,+00.028790*62
"
1712237565.1841779,-043.698,+084.965,-112.056,-00.2271,+00.2221,-00.4419,+09.775,+00.805,+00.257,+00.004005,-00.005308,+00.029496,"$VNYMR,-043.698,+084.965,-112.056,-00.2271,+00.2221,-00.4419,+09.775,+00.805,+00.257,+00.004005,-00.005308,+00.029496*6C
"
1712237565.2103455,-043.759,+085.009,-112.106,-00.2303,+00.2280,-00.4381,+09.791,+00.814,+00.269,+00.005058,-00.008712,+00.030540,"$VNYMR,-043.759,+085.009,-112.106,-00.2303,+00.2280,-00.4381,+09.791,+00.814,+00.269,+00.005058,-00.008712,+00.030540*61
"
1712237565.2351005,-043.789,+085.055,-112.134,-00.2270,+00.2244,-00.4433,+09.794,+00.785,+00.221,+00.004129,-00.009210,+00.029542,"$VNYMR,-043.789,+085.055,-112.134,-00.2270,+00.2244,-00.4433,+09.794,+00.785,+00.221,+00.004129,-00.009210,+00.029542*63
"
1712237565.259966,-043.780,+085.103,-112.119,-00.2250,+00.2149,-00.4470,+09.822,+00.779,+00.246,+00.003567,-00.011673,+00.029670,"$VNYMR,-043.780,+085.103,-112.119,-00.2250,+00.2149,-00.4470,+09.822,+00.779,+00.246,+00.003567,-00.011673,+00.029670*6F
"
1712237565.2849553,-043.762,+085.150,-112.090,-00.2282,+00.2209,-00.4353,+09.766,+00.785,+00.252,+00.006158,-00.013118,+00.029548,"$VNYMR,-043.762,+085.150,-112.090,-00.2282,+00.2209,-00.4353,+09.766,+00.785,+00.252,+00.006158,-00.013118,+00.029548*6F
"
1712237565.3101585,-043.697,+085.198,-112.021,-00.2272,+00.2173,-00.4485,+09.790,+00.800,+00.233,+00.004803,-00.014951,+00.031199,"$VNYMR,-043.697,+085.198,-112.021,-00.2272,+00.2173,-00.4485,+09.790,+00.800,+00.233,+00.004803,-00.014951,+00.031199*6D
"
1712237565.337878,-043.630,+085.244,-111.944,-00.2281,+00.2256,-00.4393,+09.751,+00.789,+00.190,+00.004425,-00.012736,+00.028777,"$VNYMR,-043.630,+085.244,-111.944,-00.2281,+00.2256,-00.4393,+09.751,+00.789,+00.190,+00.004425,-00.012736,+00.028777*65
"
1712237565.3599606,-043.568,+085.289,-111.876,-00.2291,+00.2304,-00.4381,+09.804,+00.794,+00.255,+00.003867,-00.016130,+00.028959,"$VNYMR,-043.568,+085.289,-111.876,-00.2291,+00.2304,-00.4381,+09.804,+00.794,+00.255,+00.003867,-00.016130,+00.028959*6C
"
1712237565.3849614,-043.491,+085.334,-111.790,-00.2291,+00.2339,-00.4448,+09.771,+00.812,+00.250,+00.005177,-00.016139,+00.027214,"$VNYMR,-043.491,+085.334,-111.790,-00.2291,+00.2339,-00.4448,+09.771,+00.812,+00.250,+00.005177,-00.016139,+00.027214*64
"
1712237565.409868,-043.391,+085.379,-111.685,-00.2249,+00.2185,-00.4444,+09.779,+00.785,+00.242,+00.005177,-00.015824,+00.028991,"$VNYMR,-043.391,+085.379,-111.685,-00.2249,+00.2185,-00.4444,+09.779,+00.785,+00.242,+00.005177,-00.015824,+00.028991*66
"
1712237565.4390452,-043.271,+085.422,-111.559,-00.2282,+00.2221,-00.4353,+09.784,+00.807,+00.239,+00.004381,-00.019152,+00.026650,"$VNYMR,-043.271,+085.422,-111.559,-00.2282,+00.2221,-00.4353,+09.784,+00.807,+00.239,+00.004381,-00.019152,+00.026650*60
"
1712237565.4599662,-043.102,+085.466,-111.380,-00.2272,+00.2150,-00.4405,+09.798,+00.779,+00.245,+00.004385,-00.017348,+00.026065,"$VNYMR,-043.102,+085.466,-111.380,-00.2272,+00.2150,-00.4405,+09.798,+00.779,+00.245,+00.004385,-00.017348,+00.026065*68
"
1712237565.4874659,-042.941,+085.508,-111.214,-00.2272,+00.2185,-00.4392,+09.769,+00.783,+00.251,+00.003705,-00.020281,+00.024860,"$VNYMR,-042.941,+085.508,-111.214,-00.2272,+00.2185,-00.4392,+09.769,+00.783,+00.251,+00.003705,-00.020281,+00.024860*68
"
1712237565.512505,-042.729,+085.549,-110.993,-00.2292,+00.2292,-00.4408,+09.775,+00.783,+00.238,+00.004465,-00.021216,+00.022232,"$VNYMR,-042.729,+085.549,-110.993,-00.2292,+00.2292,-00.4408,+09.775,+00.783,+00.238,+00.004465,-00.021216,+00.022232*63
"
1712237565.5370939,-042.501,+085.588,-110.759,-00.2270,+00.2292,-00.4473,+09.776,+00.769,+00.235,+00.005425,-00.020294,+00.022456,"$VNYMR,-042.501,+085.588,-110.759,-00.2270,+00.2292,-00.4473,+09.776,+00.769,+00.235,+00.005425,-00.020294,+00.022456*6E
"
1712237565.5626657,-042.272,+085.623,-110.522,-00.2249,+00.2208,-00.4444,+09.791,+00.775,+00.209,+00.003681,-00.021346,+00.020377,"$VNYMR,-042.272,+085.623,-110.522,-00.2249,+00.2208,-00.4444,+09.791,+00.775,+00.209,+00.003681,-00.021346,+00.020377*64
"
1712237565.5839598,-041.999,+085.658,-110.240,-00.2293,+00.2245,-00.4394,+09.754,+00.793,+00.245,+00.003444,-00.023220,+00.017802,"$VNYMR,-041.999,+085.658,-110.240,-00.2293,+00.2245,-00.4394,+09.754,+00.793,+00.245,+00.003444,-00.023220,+00.017802*6E
"
1712237565.6124897,-041.702,+085.690,-109.942,-00.2269,+00.2315,-00.4420,+09.776,+00.782,+00.213,+00.003496,-00.021710,+00.015586,"$VNYMR,-041.702,+085.690,-109.942,-00.2269,+00.2315,-00.4420,+09.776,+00.782,+00.213,+00.003496,-00.021710,+00.015586*65
"
1712237565.6348581,-041.392,+085.719,-109.629,-00.2270,+00.2256,-00.4366,+09.758,+00.800,+00.241,+00.002760,-00.022197,+00.015666,"$VNYMR,-041.392,+085.719,-109.629,-00.2270,+00.2256,-00.4366,+09.758,+00.800,+00.241,+00.002760,-00.022197,+00.015666*63
"
1712237565.659979,-041.088,+085.747,-109.321,-00.2258,+00.2327,-00.4433,+09.752,+00.752,+00.208,+00.002121,-00.023139,+00.013894,"$VNYMR,-041.088,+085.747,-109.321,-00.2258,+00.2327,-00.4433,+09.752,+00.752,+00.208,+00.002121,-00.023139,+00.013894*6B
"
1712237565.684953,-040.793,+085.772,-109.021,-00.2258,+00.2291,-00.4459,+09.755,+00.770,+00.222,+00.003331,-00.021876,+00.012074,"$VNYMR,-040.793,+085.772,-109.021,-00.2258,+00.2291,-00.4459,+09.755,+00.770,+00.222,+00.003331,-00.021876,+00.012074*68
"
1712237565.7124417,-040.468,+085.795,-108.695,-00.2258,+00.2327,-00.4473,+09.878,+00.794,+00.191,+00.002407,-00.020171,+00.011292,"$VNYMR,-040.468,+085.795,-108.695,-00.2258,+00.2327,-00.4473,+09.878,+00.794,+00.191,+00.002407,-00.020171,+00.011292*6E
"
1712237565.735083,-040.126,+085.815,-108.355,-00.2236,+00.2326,-00.4285,+09.733,+00.776,+00.246,+00.002166,-00.020350,+00.007905,"$VNYMR,-040.126,+085.815,-108.355,-00.2236,+00.2326,-00.4285,+09.733,+00.776,+00.246,+00.002166,-00.020350,+00.007905*6D
"
1712237565.7602022,-039.770,+085.832,-107.997,-00.2259,+00.2244,-00.4419,+09.827,+00.765,+00.198,+00.002403,-00.019204,+00.006870,"$VNYMR,-039.770,+085.832,-107.997,-00.2259,+00.2244,-00.4419,+09.827,+00.765,+00.198,+00.002403,-00.019204,+00.006870*61
"
1712237565.7849867,-039.470,+085.845,-107.696,-00.2305,+00.2198,-00.4340,+09.762,+00.760,+00.271,+00.002697,-00.022089,+00.003864,"$VNYMR,-039.470,+085.845,-107.696,-00.2305,+00.2198,-00.4340,+09.762,+00.760,+00.271,+00.002697,-00.022089,+00.003864*62
"
1712237565.8098292,-039.128,+085.855,-107.351,-00.2269,+00.2315,-00.4367,+09.789,+00.742,+00.216,+00.002118,-00.019019,+00.001888,"$VNYMR,-039.128,+085.855,-107.351,-00.2269,+00.2315,-00.4367,+09.789,+00.742,+00.216,+00.002118,-00.019019,+00.001888*69
"
1712237565.8349895,-038.762,+085.862,-106.988,-00.2280,+00.2315,-00.4434,+09.779,+00.742,+00.232,+00.000745,-00.020975,+00.000049,"$VNYMR,-038.762,+085.862,-106.988,-00.2280,+00.2315,-00.4434,+09.779,+00.742,+00.232,+00.000745,-00.020975,+00.000049*65
"
1712237565.860115,-038.391,+085.866,-106.620,-00.2279,+00.2351,-00.4394,+09.762,+00.772,+00.185,+00.000841,-00.018638,-00.002554,"$VNYMR,-038.391,+085.866,-106.620,-00.2279,+00.2351,-00.4394,+09.762,+00.772,+00.185,+00.000841,-00.018638,-00.002554*62
"
1712237565.8849738,-038.002,+085.866,-106.234,-00.2279,+00.2351,-00.4354,+09.774,+00.782,+00.238,+00.000557,-00.019532,-00.005865,"$VNYMR,-038.002,+085.866,-106.234,-00.2279,+00.2351,-00.4354,+09.774,+00.782,+00.238,+00.000557,-00.019532,-00.005865*61
"
1712237565.9099019,-037.628,+085.864,-105.863,-00.2304,+00.2245,-00.4381,+09.825,+00.773,+00.200,+00.000545,-00.017597,-00.005574,"$VNYMR,-037.628,+085.864,-105.863,-00.2304,+00.2245,-00.4381,+09.825,+00.773,+00.200,+00.000545,-00.017597,-00.005574*6F
"
1712237565.937098,-037.269,+085.859,-105.505,-00.2291,+00.2327,-00.4355,+09.717,+00.785,+00.212,-00.000965,-00.018096,-00.006751,"$VNYMR,-037.269,+085.859,-105.505,-00.2291,+00.2327,-00.4355,+09.717,+00.785,+00.212,-00.000965,-00.018096,-00.006751*6D
"
1712237565.9599817,-036.891,+085.852,-105.133,-00.2291,+00.2327,-00.4328,+09.793,+00.775,+00.201,-00.001837,-00.014887,-00.008710,"$VNYMR,-036.891,+085.852,-105.133,-00.2291,+00.2327,-00.4328,+09.793,+00.775,+00.201,-00.001837,-00.014887,-00.008710*68
"
1712237565.9849699,-036.513,+085.842,-104.756,-00.2280,+00.2304,-00.4487,+09.736,+00.777,+00.234,-00.001198,-00.015024,-00.011171,"$VNYMR,-036.513,+085.842,-104.756,-00.2280,+00.2304,-00.4487,+09.736,+00.777,+00.234,-00.001198,-00.015024,-00.011171*67
"
1712237566.009912,-036.212,+085.827,-104.458,-00.2237,+00.2232,-00.4404,+09.887,+00.803,+00.195,-00.000824,-00.012274,-00.013071,"$VNYMR,-036.212,+085.827,-104.458,-00.2237,+00.2232,-00.4404,+09.887,+00.803,+00.195,-00.000824,-00.012274,-00.013071*61
"
1712237566.034849,-035.958,+085.808,-104.208,-00.2282,+00.2244,-00.4300,+09.569,+00.765,+00.206,-00.003288,-00.010963,-00.015355,"$VNYMR,-035.958,+085.808,-104.208,-00.2282,+00.2244,-00.4300,+09.569,+00.765,+00.206,-00.003288,-00.010963,-00.015355*6D
"
1712237566.0598402,-035.693,+085.788,-103.949,-00.2271,+00.2197,-00.4405,+09.997,+00.810,+00.267,-00.002289,-00.009863,-00.016351,"$VNYMR,-035.693,+085.788,-103.949,-00.2271,+00.2197,-00.4405,+09.997,+00.810,+00.267,-00.002289,-00.009863,-00.016351*61
"
1712237566.0849593,-035.435,+085.765,-103.697,-00.2293,+00.2221,-00.4300,+09.595,+00.752,+00.245,-00.002531,-00.009780,-00.017376,"$VNYMR,-035.435,+085.765,-103.697,-00.2293,+00.2221,-00.4300,+09.595,+00.752,+00.245,-00.002531,-00.009780,-00.017376*65
"
1712237566.1129053,-035.218,+085.738,-103.486,-00.2291,+00.2351,-00.4328,+09.797,+00.766,+00.213,-00.003098,-00.007705,-00.020590,"$VNYMR,-035.218,+085.738,-103.486,-00.2291,+00.2351,-00.4328,+09.797,+00.766,+00.213,-00.003098,-00.007705,-00.020590*62
"
1712237566.1371903,-034.997,+085.709,-103.273,-00.2270,+00.2256,-00.4366,+09.738,+00.786,+00.181,-00.004722,-00.006916,-00.022058,"$VNYMR,-034.997,+085.709,-103.273,-00.2270,+00.2256,-00.4366,+09.738,+00.786,+00.181,-00.004722,-00.006916,-00.022058*6E
"
1712237566.1599262,-034.814,+085.678,-103.097,-00.2282,+00.2233,-00.4380,+09.822,+00.778,+00.240,-00.003533,-00.005821,-00.021803,"$VNYMR,-034.814,+085.678,-103.097,-00.2282,+00.2233,-00.4380,+09.822,+00.778,+00.240,-00.003533,-00.005821,-00.021803*60
"
1712237566.1849375,-034.664,+085.646,-102.955,-00.2293,+00.2233,-00.4313,+09.443,+00.806,+00.250,-00.003489,-00.007337,-00.023599,"$VNYMR,-034.664,+085.646,-102.955,-00.2293,+00.2233,-00.4313,+09.443,+00.806,+00.250,-00.003489,-00.007337,-00.023599*66
"
1712237566.2099645,-034.474,+085.612,-102.771,-00.2272,+00.2185,-00.4432,+10.318,+00.833,+00.367,-00.003696,+00.000241,-00.024642,"$VNYMR,-034.474,+085.612,-102.771,-00.2272,+00.2185,-00.4432,+10.318,+00.833,+00.367,-00.003696,+00.000241,-00.024642*64
"
1712237566.236914,-034.403,+085.575,-102.704,-00.2293,+00.2209,-00.4313,+09.192,+00.786,+00.302,-00.003988,-00.004386,-00.025387,"$VNYMR,-034.403,+085.575,-102.704,-00.2293,+00.2209,-00.4313,+09.192,+00.786,+00.302,-00.003988,-00.004386,-00.025387*67
"
1712237566.259844,-034.286,+085.538,-102.594,-00.2300,+00.2410,-00.4383,+10.119,+00.729,+00.176,-00.006447,+00.004406,-00.026208,"$VNYMR,-034.286,+085.538,-102.594,-00.2300,+00.2410,-00.4383,+10.119,+00.729,+00.176,-00.006447,+00.004406,-00.026208*6A
"
1712237566.2867837,-034.241,+085.499,-102.554,-00.2281,+00.2256,-00.4420,+09.632,+00.821,+00.138,-00.003968,+00.002934,-00.027690,"$VNYMR,-034.241,+085.499,-102.554,-00.2281,+00.2256,-00.4420,+09.632,+00.821,+00.138,-00.003968,+00.002934,-00.027690*65
"
1712237566.3098788,-034.157,+085.459,-102.477,-00.2260,+00.2232,-00.4392,+09.775,+00.783,+00.185,-00.005165,+00.004939,-00.028855,"$VNYMR,-034.157,+085.459,-102.477,-00.2260,+00.2232,-00.4392,+09.775,+00.783,+00.185,-00.005165,+00.004939,-00.028855*6D
"
1712237566.3345914,-034.193,+085.416,-102.520,-00.2304,+00.2221,-00.4247,+10.227,+00.923,+00.106,-00.003209,+00.007535,-00.026711,"$VNYMR,-034.193,+085.416,-102.520,-00.2304,+00.2221,-00.4247,+10.227,+00.923,+00.106,-00.003209,+00.007535,-00.026711*6D
"
1712237566.3599439,-034.199,+085.373,-102.531,-00.2294,+00.2162,-00.4393,+09.556,+00.821,+00.318,-00.004266,+00.006684,-00.028884,"$VNYMR,-034.199,+085.373,-102.531,-00.2294,+00.2162,-00.4393,+09.556,+00.821,+00.318,-00.004266,+00.006684,-00.028884*6B
"
1712237566.3846335,-034.204,+085.330,-102.540,-00.2326,+00.2245,-00.4369,+10.161,+00.807,+00.215,-00.004573,+00.010510,-00.028819,"$VNYMR,-034.204,+085.330,-102.540,-00.2326,+00.2245,-00.4369,+10.161,+00.807,+00.215,-00.004573,+00.010510,-00.028819*68
"
1712237566.4127886,-034.257,+085.286,-102.601,-00.2326,+00.2245,-00.4315,+09.376,+00.699,+00.214,-00.006596,+00.009775,-00.027017,"$VNYMR,-034.257,+085.286,-102.601,-00.2326,+00.2245,-00.4315,+09.376,+00.699,+00.214,-00.006596,+00.009775,-00.027017*62
"
1712237566.4377108,-034.291,+085.241,-102.641,-00.2282,+00.2221,-00.4393,+10.090,+00.727,+00.089,-00.005285,+00.015795,-00.029946,"$VNYMR,-034.291,+085.241,-102.641,-00.2282,+00.2221,-00.4393,+10.090,+00.727,+00.089,-00.005285,+00.015795,-00.029946*63
"
1712237566.461104,-034.415,+085.195,-102.770,-00.2261,+00.2149,-00.4364,+09.393,+00.757,+00.227,-00.004348,+00.011993,-00.029190,"$VNYMR,-034.415,+085.195,-102.770,-00.2261,+00.2149,-00.4364,+09.393,+00.757,+00.227,-00.004348,+00.011993,-00.029190*6F
"
1712237566.4870853,-034.529,+085.151,-102.888,-00.2338,+00.2175,-00.4302,+10.289,+00.862,+00.181,-00.003703,+00.017062,-00.029833,"$VNYMR,-034.529,+085.151,-102.888,-00.2338,+00.2175,-00.4302,+10.289,+00.862,+00.181,-00.003703,+00.017062,-00.029833*6A
"
1712237566.5095196,-034.689,+085.106,-103.054,-00.2284,+00.2103,-00.4325,+09.609,+00.808,+00.131,-00.005445,+00.015677,-00.027813,"$VNYMR,-034.689,+085.106,-103.054,-00.2284,+00.2103,-00.4325,+09.609,+00.808,+00.131,-00.005445,+00.015677,-00.027813*63
"
1712237566.5346088,-034.778,+085.063,-103.145,-00.2328,+00.2115,-00.4341,+09.498,+00.781,+00.210,-00.004508,+00.013550,-00.029538,"$VNYMR,-034.778,+085.063,-103.145,-00.2328,+00.2115,-00.4341,+09.498,+00.781,+00.210,-00.004508,+00.013550,-00.029538*6A
"
1712237566.5613601,-034.999,+085.018,-103.368,-00.2337,+00.2269,-00.4343,+10.207,+00.823,+00.066,-00.006681,+00.019468,-00.028035,"$VNYMR,-034.999,+085.018,-103.368,-00.2337,+00.2269,-00.4343,+10.207,+00.823,+00.066,-00.006681,+00.019468,-00.028035*6B
"
1712237566.5845823,-035.194,+084.975,-103.567,-00.2282,+00.2233,-00.4406,+09.179,+00.848,+00.292,-00.004705,+00.017450,-00.026158,"$VNYMR,-035.194,+084.975,-103.567,-00.2282,+00.2233,-00.4406,+09.179,+00.848,+00.292,-00.004705,+00.017450,-00.026158*6B
"
1712237566.6094573,-035.410,+084.932,-103.789,-00.2306,+00.2127,-00.4380,+10.506,+00.832,+00.208,-00.006179,+00.020425,-00.025595,"$VNYMR,-035.410,+084.932,-103.789,-00.2306,+00.2127,-00.4380,+10.506,+00.832,+00.208,-00.006179,+00.020425,-00.025595*64
"
1712237566.63461,-035.616,+084.891,-103.997,-00.2339,+00.2127,-00.4301,+08.873,+00.765,+00.345,-00.003217,+00.013076,-00.025463,"$VNYMR,-035.616,+084.891,-103.997,-00.2339,+00.2127,-00.4301,+08.873,+00.765,+00.345,-00.003217,+00.013076,-00.025463*6B
"
1712237566.6598976,-035.822,+084.853,-104.205,-00.2284,+00.2114,-00.4392,+10.612,+00.843,+00.134,-00.004567,+00.024607,-00.022561,"$VNYMR,-035.822,+084.853,-104.205,-00.2284,+00.2114,-00.4392,+10.612,+00.843,+00.134,-00.004567,+00.024607,-00.022561*6E
"
1712237566.6845977,-036.086,+084.815,-104.471,-00.2317,+00.2115,-00.4313,+09.174,+00.803,+00.271,-00.005523,+00.016481,-00.021705,"$VNYMR,-036.086,+084.815,-104.471,-00.2317,+00.2115,-00.4313,+09.174,+00.803,+00.271,-00.005523,+00.016481,-00.021705*69
"
1712237566.709517,-036.297,+084.780,-104.679,-00.2348,+00.2257,-00.4383,+10.331,+00.777,+00.174,-00.004761,+00.023796,-00.019674,"$VNYMR,-036.297,+084.780,-104.679,-00.2348,+00.2257,-00.4383,+10.331,+00.777,+00.174,-00.004761,+00.023796,-00.019674*6F
"
1712237566.734581,-036.611,+084.743,-104.996,-00.2338,+00.2210,-00.4422,+09.506,+00.805,+00.215,-00.005097,+00.019097,-00.019115,"$VNYMR,-036.611,+084.743,-104.996,-00.2338,+00.2210,-00.4422,+09.506,+00.805,+00.215,-00.005097,+00.019097,-00.019115*68
"
1712237566.7597194,-036.835,+084.712,-105.220,-00.2329,+00.2103,-00.4407,+09.808,+00.798,+00.196,-00.004364,+00.023212,-00.016851,"$VNYMR,-036.835,+084.712,-105.220,-00.2329,+00.2103,-00.4407,+09.808,+00.798,+00.196,-00.004364,+00.023212,-00.016851*6B
"
1712237566.7871368,-037.105,+084.682,-105.493,-00.2350,+00.2139,-00.4289,+09.833,+00.839,+00.187,-00.005065,+00.023250,-00.015019,"$VNYMR,-037.105,+084.682,-105.493,-00.2350,+00.2139,-00.4289,+09.833,+00.839,+00.187,-00.005065,+00.023250,-00.015019*6F
"
1712237566.8094065,-037.350,+084.654,-105.738,-00.2318,+00.2103,-00.4447,+09.596,+00.811,+00.237,-00.004472,+00.020013,-00.012999,"$VNYMR,-037.350,+084.654,-105.738,-00.2318,+00.2103,-00.4447,+09.596,+00.811,+00.237,-00.004472,+00.020013,-00.012999*66
"
1712237566.8345134,-037.638,+084.628,-106.025,-00.2350,+00.2139,-00.4382,+10.004,+00.806,+00.242,-00.004157,+00.024384,-00.012326,"$VNYMR,-037.638,+084.628,-106.025,-00.2350,+00.2139,-00.4382,+10.004,+00.806,+00.242,-00.004157,+00.024384,-00.012326*62
"
1712237566.8593788,-037.913,+084.604,-106.301,-00.2315,+00.2233,-00.4395,+09.565,+00.837,+00.260,-00.003573,+00.020539,-00.009917,"$VNYMR,-037.913,+084.604,-106.301,-00.2315,+00.2233,-00.4395,+09.565,+00.837,+00.260,-00.003573,+00.020539,-00.009917*6A
"
1712237566.8844137,-038.213,+084.583,-106.600,-00.2316,+00.2198,-00.4434,+10.030,+00.807,+00.245,-00.003193,+00.025534,-00.008812,"$VNYMR,-038.213,+084.583,-106.600,-00.2316,+00.2198,-00.4434,+10.030,+00.807,+00.245,-00.003193,+00.025534,-00.008812*65
"
1712237566.9125485,-038.512,+084.564,-106.896,-00.2295,+00.2115,-00.4419,+09.587,+00.814,+00.277,-00.001821,+00.020321,-00.005561,"$VNYMR,-038.512,+084.564,-106.896,-00.2295,+00.2115,-00.4419,+09.587,+00.814,+00.277,-00.001821,+00.020321,-00.005561*68
"
1712237566.9343543,-038.849,+084.548,-107.230,-00.2350,+00.2151,-00.4289,+09.960,+00.784,+00.233,-00.002674,+00.023785,-00.003734,"$VNYMR,-038.849,+084.548,-107.230,-00.2350,+00.2151,-00.4289,+09.960,+00.784,+00.233,-00.002674,+00.023785,-00.003734*66
"
1712237566.9622178,-039.100,+084.535,-107.477,-00.2317,+00.2127,-00.4447,+09.649,+00.840,+00.234,-00.001542,+00.019996,-00.001672,"$VNYMR,-039.100,+084.535,-107.477,-00.2317,+00.2127,-00.4447,+09.649,+00.840,+00.234,-00.001542,+00.019996,-00.001672*6F
"
1712237566.98704,-039.376,+084.525,-107.750,-00.2339,+00.2139,-00.4355,+09.835,+00.792,+00.229,-00.001546,+00.021142,-00.000640,"$VNYMR,-039.376,+084.525,-107.750,-00.2339,+00.2139,-00.4355,+09.835,+00.792,+00.229,-00.001546,+00.021142,-00.000640*6B
"
1712237567.0093646,-039.643,+084.518,-108.015,-00.2315,+00.2233,-00.4381,+09.679,+00.819,+00.209,-00.002378,+00.018335,+00.000629,"$VNYMR,-039.643,+084.518,-108.015,-00.2315,+00.2233,-00.4381,+09.679,+00.819,+00.209,-00.002378,+00.018335,+00.000629*60
"
1712237567.0345373,-039.891,+084.514,-108.258,-00.2305,+00.2174,-00.4500,+09.891,+00.840,+00.258,-00.001622,+00.017328,+00.003239,"$VNYMR,-039.891,+084.514,-108.258,-00.2305,+00.2174,-00.4500,+09.891,+00.840,+00.258,-00.001622,+00.017328,+00.003239*64
"
1712237567.0592864,-040.203,+084.510,-108.564,-00.2317,+00.2127,-00.4447,+09.730,+00.813,+00.197,-00.001263,+00.016828,+00.003952,"$VNYMR,-040.203,+084.510,-108.564,-00.2317,+00.2127,-00.4447,+09.730,+00.813,+00.197,-00.001263,+00.016828,+00.003952*6F
"
1712237567.0862453,-040.452,+084.512,-108.810,-00.2350,+00.2151,-00.4422,+09.809,+00.819,+00.250,-00.000278,+00.015920,+00.007294,"$VNYMR,-040.452,+084.512,-108.810,-00.2350,+00.2151,-00.4422,+09.809,+00.819,+00.250,-00.000278,+00.015920,+00.007294*63
"
1712237567.1121345,-040.733,+084.517,-109.084,-00.2317,+00.2115,-00.4447,+09.741,+00.815,+00.265,-00.000694,+00.017006,+00.009915,"$VNYMR,-040.733,+084.517,-109.084,-00.2317,+00.2115,-00.4447,+09.741,+00.815,+00.265,-00.000694,+00.017006,+00.009915*6A
"
1712237567.1344142,-041.021,+084.525,-109.365,-00.2339,+00.2163,-00.4355,+09.843,+00.859,+00.233,-00.000745,+00.015584,+00.011607,"$VNYMR,-041.021,+084.525,-109.365,-00.2339,+00.2163,-00.4355,+09.843,+00.859,+00.233,-00.000745,+00.015584,+00.011607*68
"
1712237567.1639538,-041.279,+084.535,-109.619,-00.2349,+00.2210,-00.4383,+09.745,+00.783,+00.244,+00.000373,+00.013341,+00.013777,"$VNYMR,-041.279,+084.535,-109.619,-00.2349,+00.2210,-00.4383,+09.745,+00.783,+00.244,+00.000373,+00.013341,+00.013777*68
"
1712237567.1866572,-041.524,+084.548,-109.864,-00.2338,+00.2186,-00.4462,+09.850,+00.863,+00.215,+00.000214,+00.012682,+00.013585,"$VNYMR,-041.524,+084.548,-109.864,-00.2338,+00.2186,-00.4462,+09.850,+00.863,+00.215,+00.000214,+00.012682,+00.013585*61
"
1712237567.2095633,-041.802,+084.564,-110.134,-00.2294,+00.2186,-00.4460,+09.697,+00.771,+00.270,+00.001802,+00.010593,+00.015519,"$VNYMR,-041.802,+084.564,-110.134,-00.2294,+00.2186,-00.4460,+09.697,+00.771,+00.270,+00.001802,+00.010593,+00.015519*63
"
1712237567.2342675,-042.029,+084.582,-110.360,-00.2306,+00.2127,-00.4340,+09.912,+00.851,+00.259,+00.001149,+00.010833,+00.018405,"$VNYMR,-042.029,+084.582,-110.360,-00.2306,+00.2127,-00.4340,+09.912,+00.851,+00.259,+00.001149,+00.010833,+00.018405*6A
"
1712237567.2620454,-042.222,+084.604,-110.546,-00.2306,+00.2138,-00.4446,+09.720,+00.803,+00.271,+00.001670,+00.007200,+00.018351,"$VNYMR,-042.222,+084.604,-110.546,-00.2306,+00.2138,-00.4446,+09.720,+00.803,+00.271,+00.001670,+00.007200,+00.018351*66
"
1712237567.284683,-042.424,+084.628,-110.737,-00.2328,+00.2151,-00.4394,+09.851,+00.802,+00.277,+00.002272,+00.005766,+00.020677,"$VNYMR,-042.424,+084.628,-110.737,-00.2328,+00.2151,-00.4394,+09.851,+00.802,+00.277,+00.002272,+00.005766,+00.020677*61
"
1712237567.309316,-042.633,+084.654,-110.940,-00.2316,+00.2210,-00.4368,+09.669,+00.808,+00.237,+00.001886,+00.004760,+00.021484,"$VNYMR,-042.633,+084.654,-110.940,-00.2316,+00.2210,-00.4368,+09.669,+00.808,+00.237,+00.001886,+00.004760,+00.021484*69
"
1712237567.334312,-042.801,+084.684,-111.100,-00.2326,+00.2245,-00.4449,+09.900,+00.828,+00.290,+00.002471,+00.001904,+00.023671,"$VNYMR,-042.801,+084.684,-111.100,-00.2326,+00.2245,-00.4449,+09.900,+00.828,+00.290,+00.002471,+00.001904,+00.023671*6A
"
1712237567.3595283,-042.947,+084.717,-111.238,-00.2284,+00.2114,-00.4472,+09.716,+00.800,+00.240,+00.002554,+00.001916,+00.023977,"$VNYMR,-042.947,+084.717,-111.238,-00.2284,+00.2114,-00.4472,+09.716,+00.800,+00.240,+00.002554,+00.001916,+00.023977*6E
"
1712237567.3841653,-043.135,+084.750,-111.416,-00.2304,+00.2209,-00.4421,+09.839,+00.797,+00.230,+00.003690,+00.001537,+00.026437,"$VNYMR,-043.135,+084.750,-111.416,-00.2304,+00.2209,-00.4421,+09.839,+00.797,+00.230,+00.003690,+00.001537,+00.026437*66
"
1712237567.4119132,-043.311,+084.786,-111.582,-00.2293,+00.2245,-00.4447,+09.726,+00.815,+00.230,+00.003009,-00.000509,+00.027611,"$VNYMR,-043.311,+084.786,-111.582,-00.2293,+00.2245,-00.4447,+09.726,+00.815,+00.230,+00.003009,-00.000509,+00.027611*6D
"
1712237567.4358282,-043.394,+084.825,-111.657,-00.2316,+00.2210,-00.4381,+09.795,+00.785,+00.278,+00.003404,-00.002143,+00.026967,"$VNYMR,-043.394,+084.825,-111.657,-00.2316,+00.2210,-00.4381,+09.795,+00.785,+00.278,+00.003404,-00.002143,+00.026967*60
"
1712237567.4594393,-043.513,+084.864,-111.767,-00.2293,+00.2233,-00.4394,+09.771,+00.777,+00.180,+00.003707,-00.003558,+00.027586,"$VNYMR,-043.513,+084.864,-111.767,-00.2293,+00.2233,-00.4394,+09.771,+00.777,+00.180,+00.003707,-00.003558,+00.027586*69
"
1712237567.4842167,-043.648,+084.903,-111.891,-00.2315,+00.2233,-00.4475,+09.804,+00.817,+00.256,+00.004458,-00.005946,+00.028486,"$VNYMR,-043.648,+084.903,-111.891,-00.2315,+00.2233,-00.4475,+09.804,+00.817,+00.256,+00.004458,-00.005946,+00.028486*6C
"
1712237567.50911,-043.751,+084.946,-111.983,-00.2284,+00.2138,-00.4472,+09.787,+00.791,+00.290,+00.004227,-00.007413,+00.028763,"$VNYMR,-043.751,+084.946,-111.983,-00.2284,+00.2138,-00.4472,+09.787,+00.791,+00.290,+00.004227,-00.007413,+00.028763*66
"
1712237567.5395064,-043.778,+084.990,-112.003,-00.2327,+00.2186,-00.4381,+09.759,+00.796,+00.245,+00.004538,-00.009174,+00.029586,"$VNYMR,-043.778,+084.990,-112.003,-00.2327,+00.2186,-00.4381,+09.759,+00.796,+00.245,+00.004538,-00.009174,+00.029586*65
"
1712237567.5598717,-043.803,+085.036,-112.025,-00.2281,+00.2268,-00.4473,+09.809,+00.789,+00.234,+00.003675,-00.008611,+00.030140,"$VNYMR,-043.803,+085.036,-112.025,-00.2281,+00.2268,-00.4473,+09.809,+00.789,+00.234,+00.003675,-00.008611,+00.030140*6E
"
1712237567.586697,-043.807,+085.081,-112.018,-00.2304,+00.2245,-00.4434,+09.791,+00.827,+00.222,+00.005176,-00.012046,+00.029757,"$VNYMR,-043.807,+085.081,-112.018,-00.2304,+00.2245,-00.4434,+09.791,+00.827,+00.222,+00.005176,-00.012046,+00.029757*6F
"
1712237567.6097445,-043.773,+085.126,-111.969,-00.2291,+00.2351,-00.4368,+09.780,+01.072,+00.222,+00.016699,-00.011323,+00.028808,"$VNYMR,-043.773,+085.126,-111.969,-00.2291,+00.2351,-00.4368,+09.780,+01.072,+00.222,+00.016699,-00.011323,+00.028808*6E
"
1712237567.6344893,-043.784,+085.168,-111.927,-00.2292,+00.2268,-00.4461,+09.786,+01.354,+00.033,+00.063065,-00.008342,+00.025802,"$VNYMR,-043.784,+085.168,-111.927,-00.2292,+00.2268,-00.4461,+09.786,+01.354,+00.033,+00.063065,-00.008342,+00.025802*6C
"
1712237567.6616817,-043.823,+085.204,-111.830,-00.2304,+00.2209,-00.4487,+09.738,+01.219,+00.281,+00.116352,-00.006721,+00.024230,"$VNYMR,-043.823,+085.204,-111.830,-00.2304,+00.2209,-00.4487,+09.738,+01.219,+00.281,+00.116352,-00.006721,+00.024230*66
"
1712237567.6842227,-043.864,+085.236,-111.645,-00.2293,+00.2221,-00.4353,+09.747,+01.248,+00.206,+00.188354,-00.005135,+00.021753,"$VNYMR,-043.864,+085.236,-111.645,-00.2293,+00.2221,-00.4353,+09.747,+01.248,+00.206,+00.188354,-00.005135,+00.021753*64
"
1712237567.712108,-043.924,+085.266,-111.380,-00.2282,+00.2197,-00.4459,+09.751,+01.278,+00.277,+00.258074,-00.000773,+00.021620,"$VNYMR,-043.924,+085.266,-111.380,-00.2282,+00.2197,-00.4459,+09.751,+01.278,+00.277,+00.258074,-00.000773,+00.021620*62
"
1712237567.7363286,-044.042,+085.295,-111.073,-00.2294,+00.2186,-00.4393,+09.726,+01.291,+00.334,+00.327619,+00.001339,+00.020567,"$VNYMR,-044.042,+085.295,-111.073,-00.2294,+00.2186,-00.4393,+09.726,+01.291,+00.334,+00.327619,+00.001339,+00.020567*60
"
1712237567.7597601,-044.246,+085.318,-110.761,-00.2291,+00.2339,-00.4461,+09.770,+01.220,+00.272,+00.384949,+00.005461,+00.021178,"$VNYMR,-044.246,+085.318,-110.761,-00.2291,+00.2339,-00.4461,+09.770,+01.220,+00.272,+00.384949,+00.005461,+00.021178*62
"
1712237567.784345,-044.587,+085.339,-110.520,-00.2270,+00.2268,-00.4540,+09.663,+01.070,+00.280,+00.423418,+00.013921,+00.021020,"$VNYMR,-044.587,+085.339,-110.520,-00.2270,+00.2268,-00.4540,+09.663,+01.070,+00.280,+00.423418,+00.013921,+00.021020*6C
"
1712237567.8093498,-045.096,+085.355,-110.402,-00.2272,+00.2173,-00.4539,+09.701,+01.015,+00.217,+00.452191,+00.023380,+00.022378,"$VNYMR,-045.096,+085.355,-110.402,-00.2272,+00.2173,-00.4539,+09.701,+01.015,+00.217,+00.452191,+00.023380,+00.022378*63
"
1712237567.834309,-045.700,+085.367,-110.349,-00.2304,+00.2221,-00.4447,+09.719,+00.880,+00.287,+00.466025,+00.031149,+00.020553,"$VNYMR,-045.700,+085.367,-110.349,-00.2304,+00.2221,-00.4447,+09.719,+00.880,+00.287,+00.466025,+00.031149,+00.020553*6B
"
1712237567.8593605,-046.439,+085.374,-110.424,-00.2293,+00.2209,-00.4607,+09.774,+00.772,+00.180,+00.463683,+00.037494,+00.018218,"$VNYMR,-046.439,+085.374,-110.424,-00.2293,+00.2209,-00.4607,+09.774,+00.772,+00.180,+00.463683,+00.037494,+00.018218*6E
"
1712237567.8841598,-047.213,+085.376,-110.553,-00.2293,+00.2221,-00.4554,+09.726,+00.659,+00.268,+00.442480,+00.041461,+00.015439,"$VNYMR,-047.213,+085.376,-110.553,-00.2293,+00.2221,-00.4554,+09.726,+00.659,+00.268,+00.442480,+00.041461,+00.015439*66
"
1712237567.9135227,-047.977,+085.376,-110.717,-00.2301,+00.2363,-00.4649,+09.896,+00.499,+00.291,+00.405202,+00.039952,+00.012457,"$VNYMR,-047.977,+085.376,-110.717,-00.2301,+00.2363,-00.4649,+09.896,+00.499,+00.291,+00.405202,+00.039952,+00.012457*61
"
1712237567.936824,-048.592,+085.374,-110.799,-00.2270,+00.2292,-00.4727,+09.747,+00.414,+00.350,+00.352249,+00.029581,+00.008536,"$VNYMR,-048.592,+085.374,-110.799,-00.2270,+00.2292,-00.4727,+09.747,+00.414,+00.350,+00.352249,+00.029581,+00.008536*62
"
1712237567.960567,-049.008,+085.372,-110.772,-00.2282,+00.2197,-00.4700,+09.995,+00.315,+00.336,+00.284647,+00.017027,+00.004297,"$VNYMR,-049.008,+085.372,-110.772,-00.2282,+00.2197,-00.4700,+09.995,+00.315,+00.336,+00.284647,+00.017027,+00.004297*6B
"
1712237567.9840214,-049.157,+085.372,-110.581,-00.2304,+00.2221,-00.4621,+09.810,+00.298,+00.381,+00.212202,+00.000140,+00.001469,"$VNYMR,-049.157,+085.372,-110.581,-00.2304,+00.2221,-00.4621,+09.810,+00.298,+00.381,+00.212202,+00.000140,+00.001469*67
"
1712237568.0114763,-049.008,+085.375,-110.196,-00.2271,+00.2197,-00.4726,+09.902,+00.251,+00.384,+00.137763,-00.011268,-00.004181,"$VNYMR,-049.008,+085.375,-110.196,-00.2271,+00.2197,-00.4726,+09.902,+00.251,+00.384,+00.137763,-00.011268,-00.004181*69
"
1712237568.0362115,-048.621,+085.378,-109.676,-00.2302,+00.2328,-00.4702,+09.805,+00.335,+00.308,+00.070337,-00.025678,-00.007977,"$VNYMR,-048.621,+085.378,-109.676,-00.2302,+00.2328,-00.4702,+09.805,+00.335,+00.308,+00.070337,-00.025678,-00.007977*6A
"
1712237568.062209,-048.026,+085.381,-109.039,-00.2325,+00.2304,-00.4663,+09.882,+00.413,+00.286,+00.011620,-00.035308,-00.011328,"$VNYMR,-048.026,+085.381,-109.039,-00.2325,+00.2304,-00.4663,+09.882,+00.413,+00.286,+00.011620,-00.035308,-00.011328*66
"
1712237568.0863888,-047.337,+085.383,-108.384,-00.2291,+00.2316,-00.4728,+09.708,+00.489,+00.238,-00.037064,-00.037859,-00.012650,"$VNYMR,-047.337,+085.383,-108.384,-00.2291,+00.2316,-00.4728,+09.708,+00.489,+00.238,-00.037064,-00.037859,-00.012650*64
"
1712237568.1088605,-046.660,+085.382,-107.795,-00.2270,+00.2268,-00.4700,+09.815,+00.594,+00.168,-00.070621,-00.041156,-00.014284,"$VNYMR,-046.660,+085.382,-107.795,-00.2270,+00.2268,-00.4700,+09.815,+00.594,+00.168,-00.070621,-00.041156,-00.014284*65
"
1712237568.1339307,-046.018,+085.380,-107.280,-00.2326,+00.2222,-00.4702,+09.709,+00.714,+00.175,-00.090080,-00.033101,-00.011527,"$VNYMR,-046.018,+085.380,-107.280,-00.2326,+00.2222,-00.4702,+09.709,+00.714,+00.175,-00.090080,-00.033101,-00.011527*6A
"
1712237568.158868,-045.513,+085.375,-106.913,-00.2304,+00.2209,-00.4754,+09.698,+00.819,+00.177,-00.091895,-00.020516,-00.011091,"$VNYMR,-045.513,+085.375,-106.913,-00.2304,+00.2209,-00.4754,+09.698,+00.819,+00.177,-00.091895,-00.020516,-00.011091*6B
"
1712237568.1839485,-045.192,+085.368,-106.723,-00.2327,+00.2210,-00.4635,+09.742,+00.873,+00.190,-00.082484,-00.013182,-00.009079,"$VNYMR,-045.192,+085.368,-106.723,-00.2327,+00.2210,-00.4635,+09.742,+00.873,+00.190,-00.082484,-00.013182,-00.009079*63
"
1712237568.2123032,-045.032,+085.359,-106.674,-00.2291,+00.2304,-00.4608,+09.745,+00.916,+00.213,-00.065800,-00.007072,-00.008051,"$VNYMR,-045.032,+085.359,-106.674,-00.2291,+00.2304,-00.4608,+09.745,+00.916,+00.213,-00.065800,-00.007072,-00.008051*6B
"
1712237568.2339215,-044.903,+085.349,-106.632,-00.2292,+00.2292,-00.4741,+09.759,+00.935,+00.292,-00.049813,-00.003173,-00.007303,"$VNYMR,-044.903,+085.349,-106.632,-00.2292,+00.2292,-00.4741,+09.759,+00.935,+00.292,-00.049813,-00.003173,-00.007303*65
"
1712237568.2590804,-044.820,+085.336,-106.612,-00.2293,+00.2221,-00.4687,+09.826,+00.878,+00.309,-00.032452,+00.000266,-00.008369,"$VNYMR,-044.820,+085.336,-106.612,-00.2293,+00.2221,-00.4687,+09.826,+00.878,+00.309,-00.032452,+00.000266,-00.008369*65
"
1712237568.2838027,-044.734,+085.320,-106.571,-00.2304,+00.2209,-00.4647,+09.773,+00.833,+00.282,-00.022885,-00.003516,-00.011532,"$VNYMR,-044.734,+085.320,-106.571,-00.2304,+00.2209,-00.4647,+09.773,+00.833,+00.282,-00.022885,-00.003516,-00.011532*67
"
1712237568.3087802,-044.531,+085.304,-106.406,-00.2294,+00.2186,-00.4660,+09.817,+00.734,+00.297,-00.021787,-00.006649,-00.013696,"$VNYMR,-044.531,+085.304,-106.406,-00.2294,+00.2186,-00.4660,+09.817,+00.734,+00.297,-00.021787,-00.006649,-00.013696*62
"
1712237568.3336523,-044.309,+085.285,-106.222,-00.2294,+00.2186,-00.4607,+09.808,+00.841,+00.299,-00.018229,-00.010267,-00.016883,"$VNYMR,-044.309,+085.285,-106.222,-00.2294,+00.2186,-00.4607,+09.808,+00.841,+00.299,-00.018229,-00.010267,-00.016883*60
"
1712237568.3589041,-044.037,+085.264,-105.977,-00.2303,+00.2292,-00.4608,+09.762,+00.860,+00.263,-00.007203,-00.010201,-00.018559,"$VNYMR,-044.037,+085.264,-105.977,-00.2303,+00.2292,-00.4608,+09.762,+00.860,+00.263,-00.007203,-00.010201,-00.018559*68
"
1712237568.387881,-043.744,+085.242,-105.690,-00.2291,+00.2339,-00.4688,+09.737,+00.846,+00.180,+00.005384,-00.011338,-00.019534,"$VNYMR,-043.744,+085.242,-105.690,-00.2291,+00.2339,-00.4688,+09.737,+00.846,+00.180,+00.005384,-00.011338,-00.019534*6C
"
1712237568.408955,-043.502,+085.217,-105.451,-00.2304,+00.2245,-00.4755,+09.834,+00.795,+00.081,+00.004441,-00.006297,-00.020549,"$VNYMR,-043.502,+085.217,-105.451,-00.2304,+00.2245,-00.4755,+09.834,+00.795,+00.081,+00.004441,-00.006297,-00.020549*65
"
1712237568.4339623,-043.342,+085.191,-105.294,-00.2304,+00.2209,-00.4607,+09.645,+00.795,+00.125,+00.004885,+00.001106,-00.019232,"$VNYMR,-043.342,+085.191,-105.294,-00.2304,+00.2209,-00.4607,+09.645,+00.795,+00.125,+00.004885,+00.001106,-00.019232*63
"
1712237568.458936,-043.313,+085.163,-105.270,-00.2280,+00.2304,-00.4674,+09.761,+00.830,+00.189,+00.003548,+00.001998,-00.018289,"$VNYMR,-043.313,+085.163,-105.270,-00.2280,+00.2304,-00.4674,+09.761,+00.830,+00.189,+00.003548,+00.001998,-00.018289*61
"
1712237568.4853609,-043.355,+085.137,-105.317,-00.2305,+00.2162,-00.4567,+09.764,+00.831,+00.195,+00.003490,+00.009028,-00.016780,"$VNYMR,-043.355,+085.137,-105.317,-00.2305,+00.2162,-00.4567,+09.764,+00.831,+00.195,+00.003490,+00.009028,-00.016780*68
"
1712237568.5096333,-043.489,+085.110,-105.458,-00.2314,+00.2292,-00.4622,+09.684,+00.812,+00.220,+00.004199,+00.011095,-00.014492,"$VNYMR,-043.489,+085.110,-105.458,-00.2314,+00.2292,-00.4622,+09.684,+00.812,+00.220,+00.004199,+00.011095,-00.014492*6C
"
1712237568.534649,-043.609,+085.085,-105.588,-00.2323,+00.2387,-00.4704,+09.784,+00.794,+00.267,+00.003136,+00.012330,-00.014997,"$VNYMR,-043.609,+085.085,-105.588,-00.2323,+00.2387,-00.4704,+09.784,+00.794,+00.267,+00.003136,+00.012330,-00.014997*65
"
1712237568.5595856,-043.669,+085.060,-105.659,-00.2305,+00.2198,-00.4647,+09.751,+00.779,+00.261,+00.003329,+00.007808,-00.015864,"$VNYMR,-043.669,+085.060,-105.659,-00.2305,+00.2198,-00.4647,+09.751,+00.779,+00.261,+00.003329,+00.007808,-00.015864*60
"
1712237568.5860019,-043.702,+085.035,-105.705,-00.2328,+00.2151,-00.4555,+09.827,+00.796,+00.266,+00.005012,+00.003123,-00.017767,"$VNYMR,-043.702,+085.035,-105.705,-00.2328,+00.2151,-00.4555,+09.827,+00.796,+00.266,+00.005012,+00.003123,-00.017767*61
"
1712237568.610062,-043.623,+085.010,-105.640,-00.2295,+00.2138,-00.4686,+09.820,+00.799,+00.289,+00.007228,+00.000402,-00.019076,"$VNYMR,-043.623,+085.010,-105.640,-00.2295,+00.2138,-00.4686,+09.820,+00.799,+00.289,+00.007228,+00.000402,-00.019076*6D
"
1712237568.6368024,-043.440,+084.986,-105.473,-00.2316,+00.2174,-00.4608,+09.816,+00.797,+00.271,+00.007052,-00.004449,-00.019803,"$VNYMR,-043.440,+084.986,-105.473,-00.2316,+00.2174,-00.4608,+09.816,+00.797,+00.271,+00.007052,-00.004449,-00.019803*6F
"
1712237568.6604788,-043.248,+084.961,-105.295,-00.2325,+00.2304,-00.4703,+09.842,+00.806,+00.220,+00.007379,-00.006798,-00.018902,"$VNYMR,-043.248,+084.961,-105.295,-00.2325,+00.2304,-00.4703,+09.842,+00.806,+00.220,+00.007379,-00.006798,-00.018902*6D
"
1712237568.6850216,-043.054,+084.938,-105.117,-00.2326,+00.2234,-00.4649,+09.643,+00.774,+00.183,+00.006230,-00.003851,-00.018664,"$VNYMR,-043.054,+084.938,-105.117,-00.2326,+00.2234,-00.4649,+09.643,+00.774,+00.183,+00.006230,-00.003851,-00.018664*6B
"
1712237568.7099464,-042.943,+084.915,-105.017,-00.2303,+00.2269,-00.4688,+09.874,+00.823,+00.128,+00.007084,+00.002839,-00.016318,"$VNYMR,-042.943,+084.915,-105.017,-00.2303,+00.2269,-00.4688,+09.874,+00.823,+00.128,+00.007084,+00.002839,-00.016318*6A
"
1712237568.7375383,-042.907,+084.895,-104.975,-00.2327,+00.2198,-00.4555,+09.682,+00.809,+00.169,+00.003562,+00.005713,-00.014144,"$VNYMR,-042.907,+084.895,-104.975,-00.2327,+00.2198,-00.4555,+09.682,+00.809,+00.169,+00.003562,+00.005713,-00.014144*6D
"
1712237568.7598906,-042.966,+084.875,-105.027,-00.2294,+00.2174,-00.4713,+09.755,+00.792,+00.203,+00.003660,+00.011330,-00.011307,"$VNYMR,-042.966,+084.875,-105.027,-00.2294,+00.2174,-00.4713,+09.755,+00.792,+00.203,+00.003660,+00.011330,-00.011307*68
"
1712237568.7849367,-043.088,+084.858,-105.145,-00.2327,+00.2198,-00.4608,+09.790,+00.816,+00.173,+00.002429,+00.013643,-00.011535,"$VNYMR,-043.088,+084.858,-105.145,-00.2327,+00.2198,-00.4608,+09.790,+00.816,+00.173,+00.002429,+00.013643,-00.011535*6E
"
1712237568.810073,-043.269,+084.840,-105.323,-00.2358,+00.2305,-00.4625,+09.759,+00.831,+00.219,+00.001812,+00.015258,-00.009144,"$VNYMR,-043.269,+084.840,-105.323,-00.2358,+00.2305,-00.4625,+09.759,+00.831,+00.219,+00.001812,+00.015258,-00.009144*62
"
1712237568.8348045,-043.449,+084.823,-105.500,-00.2314,+00.2269,-00.4662,+09.799,+00.776,+00.292,+00.001979,+00.011531,-00.009480,"$VNYMR,-043.449,+084.823,-105.500,-00.2314,+00.2269,-00.4662,+09.799,+00.776,+00.292,+00.001979,+00.011531,-00.009480*6A
"
1712237568.8598654,-043.597,+084.807,-105.645,-00.2306,+00.2127,-00.4660,+09.834,+00.781,+00.318,+00.002251,+00.009057,-00.010796,"$VNYMR,-043.597,+084.807,-105.645,-00.2306,+00.2127,-00.4660,+09.834,+00.781,+00.318,+00.002251,+00.009057,-00.010796*65
"
1712237568.8840668,-043.682,+084.792,-105.725,-00.2326,+00.2222,-00.4542,+09.765,+00.796,+00.281,+00.003576,+00.002803,-00.012187,"$VNYMR,-043.682,+084.792,-105.725,-00.2326,+00.2222,-00.4542,+09.765,+00.796,+00.281,+00.003576,+00.002803,-00.012187*68
"
1712237568.9121616,-043.673,+084.778,-105.712,-00.2316,+00.2162,-00.4688,+09.832,+00.801,+00.308,+00.003867,+00.000304,-00.010598,"$VNYMR,-043.673,+084.778,-105.712,-00.2316,+00.2162,-00.4688,+09.832,+00.801,+00.308,+00.003867,+00.000304,-00.010598*60
"
1712237568.93627,-043.623,+084.767,-105.656,-00.2316,+00.2162,-00.4594,+09.785,+00.809,+00.255,+00.004267,-00.000239,-00.011290,"$VNYMR,-043.623,+084.767,-105.656,-00.2316,+00.2162,-00.4594,+09.785,+00.809,+00.255,+00.004267,-00.000239,-00.011290*6C
"
1712237568.961821,-043.525,+084.758,-105.553,-00.2325,+00.2281,-00.4623,+09.744,+00.826,+00.240,+00.003240,-00.003586,-00.008560,"$VNYMR,-043.525,+084.758,-105.553,-00.2325,+00.2281,-00.4623,+09.744,+00.826,+00.240,+00.003240,-00.003586,-00.008560*64
"
1712237568.9846945,-043.492,+084.750,-105.516,-00.2315,+00.2257,-00.4742,+09.773,+00.808,+00.156,+00.002170,+00.001254,-00.006057,"$VNYMR,-043.492,+084.750,-105.516,-00.2315,+00.2257,-00.4742,+09.773,+00.808,+00.156,+00.002170,+00.001254,-00.006057*60
"
1712237569.0099385,-043.540,+084.746,-105.562,-00.2304,+00.2221,-00.4714,+09.678,+00.829,+00.193,+00.000194,+00.004959,-00.004051,"$VNYMR,-043.540,+084.746,-105.562,-00.2304,+00.2221,-00.4714,+09.678,+00.829,+00.193,+00.000194,+00.004959,-00.004051*67
"
1712237569.0350766,-043.649,+084.743,-105.670,-00.2315,+00.2233,-00.4622,+09.775,+00.816,+00.185,-00.000212,+00.011979,-00.001812,"$VNYMR,-043.649,+084.743,-105.670,-00.2315,+00.2233,-00.4622,+09.775,+00.816,+00.185,-00.000212,+00.011979,-00.001812*6F
"
1712237569.0602896,-043.861,+084.740,-105.884,-00.2305,+00.2162,-00.4727,+09.713,+00.819,+00.197,-00.001548,+00.013907,+00.000511,"$VNYMR,-043.861,+084.740,-105.884,-00.2305,+00.2162,-00.4727,+09.713,+00.819,+00.197,-00.001548,+00.013907,+00.000511*68
"
1712237569.0847113,-044.122,+084.738,-106.147,-00.2325,+00.2293,-00.4623,+09.801,+00.797,+00.221,-00.002192,+00.016755,+00.001088,"$VNYMR,-044.122,+084.738,-106.147,-00.2325,+00.2293,-00.4623,+09.801,+00.797,+00.221,-00.002192,+00.016755,+00.001088*62
"
1712237569.1096406,-044.374,+084.737,-106.402,-00.2337,+00.2269,-00.4610,+09.746,+00.788,+00.239,-00.003070,+00.017808,+00.001410,"$VNYMR,-044.374,+084.737,-106.402,-00.2337,+00.2269,-00.4610,+09.746,+00.788,+00.239,-00.003070,+00.017808,+00.001410*6A
"
1712237569.13476,-044.634,+084.736,-106.665,-00.2304,+00.2245,-00.4701,+09.845,+00.786,+00.278,-00.003321,+00.012113,+00.001993,"$VNYMR,-044.634,+084.736,-106.665,-00.2304,+00.2245,-00.4701,+09.845,+00.786,+00.278,-00.003321,+00.012113,+00.001993*66
"
1712237569.162626,-044.834,+084.737,-106.867,-00.2293,+00.2209,-00.4714,+09.839,+00.802,+00.324,-00.001871,+00.008001,+00.000862,"$VNYMR,-044.834,+084.737,-106.867,-00.2293,+00.2209,-00.4714,+09.839,+00.802,+00.324,-00.001871,+00.008001,+00.000862*6D
"
1712237569.184793,-044.923,+084.741,-106.959,-00.2315,+00.2245,-00.4635,+09.830,+00.809,+00.283,-00.001138,+00.001671,+00.001397,"$VNYMR,-044.923,+084.741,-106.959,-00.2315,+00.2245,-00.4635,+09.830,+00.809,+00.283,-00.001138,+00.001671,+00.001397*60
"
1712237569.209843,-044.898,+084.748,-106.936,-00.2294,+00.2174,-00.4753,+09.747,+00.809,+00.265,-00.002276,-00.003097,+00.003211,"$VNYMR,-044.898,+084.748,-106.936,-00.2294,+00.2174,-00.4753,+09.747,+00.809,+00.265,-00.002276,-00.003097,+00.003211*63
"
1712237569.2373405,-044.861,+084.757,-106.902,-00.2304,+00.2209,-00.4661,+09.778,+00.824,+00.232,-00.002604,-00.005513,+00.004232,"$VNYMR,-044.861,+084.757,-106.902,-00.2304,+00.2209,-00.4661,+09.778,+00.824,+00.232,-00.002604,-00.005513,+00.004232*64
"
1712237569.2598467,-044.856,+084.769,-106.899,-00.2313,+00.2328,-00.4689,+09.757,+00.819,+00.218,-00.001671,-00.000996,+00.006464,"$VNYMR,-044.856,+084.769,-106.899,-00.2313,+00.2328,-00.4689,+09.757,+00.819,+00.218,-00.001671,-00.000996,+00.006464*65
"
1712237569.284645,-044.881,+084.784,-106.928,-00.2293,+00.2221,-00.4674,+09.773,+00.797,+00.181,-00.003923,+00.003142,+00.008573,"$VNYMR,-044.881,+084.784,-106.928,-00.2293,+00.2221,-00.4674,+09.773,+00.797,+00.181,-00.003923,+00.003142,+00.008573*6F
"
1712237569.3098884,-045.040,+084.798,-107.092,-00.2283,+00.2150,-00.4686,+09.760,+00.823,+00.200,-00.004705,+00.006835,+00.011032,"$VNYMR,-045.040,+084.798,-107.092,-00.2283,+00.2150,-00.4686,+09.760,+00.823,+00.200,-00.004705,+00.006835,+00.011032*67
"
1712237569.3343804,-045.242,+084.812,-107.302,-00.2317,+00.2151,-00.4567,+09.765,+00.818,+00.160,-00.006561,+00.012154,+00.012807,"$VNYMR,-045.242,+084.812,-107.302,-00.2317,+00.2151,-00.4567,+09.765,+00.818,+00.160,-00.006561,+00.012154,+00.012807*6D
"
1712237569.3596623,-045.486,+084.827,-107.554,-00.2272,+00.2185,-00.4712,+09.719,+00.789,+00.268,-00.005684,+00.013767,+00.013143,"$VNYMR,-045.486,+084.827,-107.554,-00.2272,+00.2185,-00.4712,+09.719,+00.789,+00.268,-00.005684,+00.013767,+00.013143*68
"
1712237569.3873754,-045.760,+084.841,-107.836,-00.2315,+00.2233,-00.4662,+09.795,+00.812,+00.249,-00.006372,+00.014980,+00.013641,"$VNYMR,-045.760,+084.841,-107.836,-00.2315,+00.2233,-00.4662,+09.795,+00.812,+00.249,-00.006372,+00.014980,+00.013641*62
"
1712237569.411633,-045.980,+084.857,-108.065,-00.2302,+00.2316,-00.4635,+09.783,+00.801,+00.275,-00.006220,+00.009316,+00.014597,"$VNYMR,-045.980,+084.857,-108.065,-00.2302,+00.2316,-00.4635,+09.783,+00.801,+00.275,-00.006220,+00.009316,+00.014597*6C
"
1712237569.4372272,-046.158,+084.873,-108.251,-00.2303,+00.2292,-00.4715,+09.805,+00.817,+00.328,-00.006190,+00.005531,+00.012625,"$VNYMR,-046.158,+084.873,-108.251,-00.2303,+00.2292,-00.4715,+09.805,+00.817,+00.328,-00.006190,+00.005531,+00.012625*6A
"
1712237569.4595528,-046.232,+084.894,-108.331,-00.2272,+00.2173,-00.4725,+09.819,+00.802,+00.270,-00.004339,+00.000514,+00.014179,"$VNYMR,-046.232,+084.894,-108.331,-00.2272,+00.2173,-00.4725,+09.819,+00.802,+00.270,-00.004339,+00.000514,+00.014179*6F
"
1712237569.4868643,-046.256,+084.917,-108.361,-00.2294,+00.2197,-00.4580,+09.778,+00.824,+00.285,-00.003977,-00.007431,+00.016379,"$VNYMR,-046.256,+084.917,-108.361,-00.2294,+00.2197,-00.4580,+09.778,+00.824,+00.285,-00.003977,-00.007431,+00.016379*6B
"
1712237569.5097883,-046.243,+084.941,-108.352,-00.2272,+00.2185,-00.4685,+09.775,+00.813,+00.271,-00.003380,-00.006187,+00.015996,"$VNYMR,-046.243,+084.941,-108.352,-00.2272,+00.2185,-00.4685,+09.775,+00.813,+00.271,-00.003380,-00.006187,+00.015996*60
"
