Timestamp,Yaw,Pitch,Roll,Angular Velocity X,Angular Velocity Y,Angular Velocity Z,Linear Acceleration X,Linear Acceleration Y,Linear Acceleration Z,Magnetic Field X,Magnetic Field Y,Magnetic Field Z,Original String
1712236992.4614377,-073.440,+088.600,-123.502,-00.2145,+00.2443,-00.4629,+09.792,+00.275,+00.027,+00.002661,+00.009390,-00.005468,"$VNYMR,-073.440,+088.600,-123.502,-00.2145,+00.2443,-00.4629,+09.792,+00.275,+00.027,+00.002661,+00.009390,-00.005468*68
"
1712236992.4862437,-073.831,+088.590,-123.887,-00.2188,+00.2503,-00.4511,+09.796,+00.333,+00.056,+00.002209,+00.011548,+00.004262,"$VNYMR,-073.831,+088.590,-123.887,-00.2188,+00.2503,-00.4511,+09.796,+00.333,+00.056,+00.002209,+00.011548,+00.004262*6E
"
1712236992.5119517,-074.646,+088.589,-124.697,-00.2196,+00.2645,-00.4580,+09.812,+00.319,+00.071,+00.000596,+00.014248,+00.012529,"$VNYMR,-074.646,+088.589,-124.697,-00.2196,+00.2645,-00.4580,+09.812,+00.319,+00.071,+00.000596,+00.014248,+00.012529*61
"
1712236992.5364094,-075.906,+088.599,-125.952,-00.2142,+00.2597,-00.4657,+09.791,+00.249,+00.108,+00.000874,+00.010695,+00.021636,"$VNYMR,-075.906,+088.599,-125.952,-00.2142,+00.2597,-00.4657,+09.791,+00.249,+00.108,+00.000874,+00.010695,+00.021636*62
"
1712236992.5613089,-077.391,+088.614,-127.434,-00.2154,+00.2502,-00.4657,+09.829,+00.160,+00.076,+00.001217,+00.016208,+00.023597,"$VNYMR,-077.391,+088.614,-127.434,-00.2154,+00.2502,-00.4657,+09.829,+00.160,+00.076,+00.001217,+00.016208,+00.023597*68
"
1712236992.586429,-078.819,+088.630,-128.861,-00.2166,+00.2491,-00.4483,+09.783,+00.065,+00.092,+00.002135,+00.009873,+00.020498,"$VNYMR,-078.819,+088.630,-128.861,-00.2166,+00.2491,-00.4483,+09.783,+00.065,+00.092,+00.002135,+00.009873,+00.020498*6C
"
1712236992.6136317,-079.931,+088.639,-129.969,-00.2133,+00.2478,-00.4615,+09.822,+00.072,+00.168,+00.003311,+00.010126,+00.010989,"$VNYMR,-079.931,+088.639,-129.969,-00.2133,+00.2478,-00.4615,+09.822,+00.072,+00.168,+00.003311,+00.010126,+00.010989*61
"
1712236992.6365008,-080.522,+088.642,-130.555,-00.2143,+00.2502,-00.4589,+09.795,+00.051,+00.154,+00.003709,+00.007829,+00.001503,"$VNYMR,-080.522,+088.642,-130.555,-00.2143,+00.2502,-00.4589,+09.795,+00.051,+00.154,+00.003709,+00.007829,+00.001503*6D
"
1712236992.6615958,-080.732,+088.638,-130.757,-00.2163,+00.2656,-00.4579,+09.835,+00.110,+00.115,+00.003867,+00.000989,-00.004186,"$VNYMR,-080.732,+088.638,-130.757,-00.2163,+00.2656,-00.4579,+09.835,+00.110,+00.115,+00.003867,+00.000989,-00.004186*69
"
1712236992.6891384,-080.408,+088.637,-130.425,-00.2164,+00.2573,-00.4645,+09.839,+00.213,+00.134,+00.005465,-00.000076,-00.004417,"$VNYMR,-080.408,+088.637,-130.425,-00.2164,+00.2573,-00.4645,+09.839,+00.213,+00.134,+00.005465,-00.000076,-00.004417*60
"
1712236992.7145267,-080.123,+088.635,-130.129,-00.2122,+00.2478,-00.4614,+09.804,+00.298,+00.143,+00.005405,-00.003468,+00.000431,"$VNYMR,-080.123,+088.635,-130.129,-00.2122,+00.2478,-00.4614,+09.804,+00.298,+00.143,+00.005405,-00.003468,+00.000431*6E
"
1712236992.7365396,-080.018,+088.642,-130.014,-00.2165,+00.2538,-00.4524,+09.812,+00.311,+00.110,+00.005564,-00.005480,+00.009212,"$VNYMR,-080.018,+088.642,-130.014,-00.2165,+00.2538,-00.4524,+09.812,+00.311,+00.110,+00.005564,-00.005480,+00.009212*67
"
1712236992.7613056,-080.171,+088.661,-130.160,-00.2133,+00.2478,-00.4655,+09.812,+00.267,+00.033,+00.003902,-00.008635,+00.018191,"$VNYMR,-080.171,+088.661,-130.160,-00.2133,+00.2478,-00.4655,+09.812,+00.267,+00.033,+00.003902,-00.008635,+00.018191*6A
"
1712236992.7866344,-080.783,+088.687,-130.766,-00.2152,+00.2609,-00.4564,+09.788,+00.187,+00.059,+00.003966,-00.000940,+00.021890,"$VNYMR,-080.783,+088.687,-130.766,-00.2152,+00.2609,-00.4564,+09.788,+00.187,+00.059,+00.003966,-00.000940,+00.021890*63
"
1712236992.8141782,-081.558,+088.714,-131.536,-00.2152,+00.2620,-00.4604,+09.764,+00.099,+00.062,+00.003444,+00.000543,+00.022373,"$VNYMR,-081.558,+088.714,-131.536,-00.2152,+00.2620,-00.4604,+09.764,+00.099,+00.062,+00.003444,+00.000543,+00.022373*60
"
1712236992.8362834,-082.434,+088.734,-132.407,-00.2153,+00.2585,-00.4657,+09.794,+00.073,+00.042,+00.003418,+00.004684,+00.015543,"$VNYMR,-082.434,+088.734,-132.407,-00.2153,+00.2585,-00.4657,+09.794,+00.073,+00.042,+00.003418,+00.004684,+00.015543*6C
"
1712236992.8617368,-083.194,+088.743,-133.163,-00.2131,+00.2573,-00.4656,+09.791,+00.049,+00.094,+00.004116,+00.005493,+00.006835,"$VNYMR,-083.194,+088.743,-133.163,-00.2131,+00.2573,-00.4656,+09.791,+00.049,+00.094,+00.004116,+00.005493,+00.006835*68
"
1712236992.8865867,-083.644,+088.744,-133.608,-00.2154,+00.2526,-00.4510,+09.829,+00.094,+00.155,+00.003349,+00.006460,-00.000070,"$VNYMR,-083.644,+088.744,-133.608,-00.2154,+00.2526,-00.4510,+09.829,+00.094,+00.155,+00.003349,+00.006460,-00.000070*64
"
1712236992.91185,-083.607,+088.742,-133.564,-00.2133,+00.2478,-00.4588,+09.888,+00.171,+00.161,+00.004805,+00.001838,-00.003945,"$VNYMR,-083.607,+088.742,-133.564,-00.2133,+00.2478,-00.4588,+09.888,+00.171,+00.161,+00.004805,+00.001838,-00.003945*6E
"
1712236992.9386418,-083.410,+088.738,-133.360,-00.2165,+00.2514,-00.4577,+09.816,+00.223,+00.194,+00.003932,-00.004943,-00.002006,"$VNYMR,-083.410,+088.738,-133.360,-00.2165,+00.2514,-00.4577,+09.816,+00.223,+00.194,+00.003932,-00.004943,-00.002006*67
"
1712236992.9637141,-082.952,+088.745,-132.893,-00.2153,+00.2585,-00.4591,+09.879,+00.262,+00.165,+00.005723,-00.012862,+00.004299,"$VNYMR,-082.952,+088.745,-132.893,-00.2153,+00.2585,-00.4591,+09.879,+00.262,+00.165,+00.005723,-00.012862,+00.004299*6F
"
1712236992.9864924,-082.553,+088.764,-132.486,-00.2130,+00.2596,-00.4616,+09.818,+00.259,+00.159,+00.004045,-00.017864,+00.011604,"$VNYMR,-082.553,+088.764,-132.486,-00.2130,+00.2596,-00.4616,+09.818,+00.259,+00.159,+00.004045,-00.017864,+00.011604*63
"
1712236993.014849,-082.103,+088.796,-132.030,-00.2133,+00.2490,-00.4615,+09.829,+00.192,+00.052,+00.004422,-00.017371,+00.015471,"$VNYMR,-082.103,+088.796,-132.030,-00.2133,+00.2490,-00.4615,+09.829,+00.192,+00.052,+00.004422,-00.017371,+00.015471*63
"
1712236993.0365896,-081.707,+088.833,-131.629,-00.2142,+00.2549,-00.4576,+09.790,+00.151,+00.038,+00.003691,-00.018042,+00.016622,"$VNYMR,-081.707,+088.833,-131.629,-00.2142,+00.2549,-00.4576,+09.790,+00.151,+00.038,+00.003691,-00.018042,+00.016622*62
"
1712236993.0633547,-081.512,+088.867,-131.430,-00.2152,+00.2609,-00.4618,+09.780,+00.090,+00.017,+00.003599,-00.013922,+00.012742,"$VNYMR,-081.512,+088.867,-131.430,-00.2152,+00.2609,-00.4618,+09.780,+00.090,+00.017,+00.003599,-00.013922,+00.012742*6E
"
1712236993.0861993,-081.287,+088.891,-131.201,-00.2154,+00.2514,-00.4563,+09.757,+00.039,+00.006,+00.002826,-00.009864,+00.005260,"$VNYMR,-081.287,+088.891,-131.201,-00.2154,+00.2514,-00.4563,+09.757,+00.039,+00.006,+00.002826,-00.009864,+00.005260*64
"
1712236993.113506,-080.940,+088.905,-130.850,-00.2140,+00.2679,-00.4564,+09.762,+00.044,+00.068,+00.003166,-00.001113,-00.000656,"$VNYMR,-080.940,+088.905,-130.850,-00.2140,+00.2679,-00.4564,+09.762,+00.044,+00.068,+00.003166,-00.001113,-00.000656*67
"
1712236993.1364834,-080.442,+088.907,-130.349,-00.2153,+00.2597,-00.4658,+09.828,+00.115,+00.041,+00.003626,-00.000015,-00.005682,"$VNYMR,-080.442,+088.907,-130.349,-00.2153,+00.2597,-00.4658,+09.828,+00.115,+00.041,+00.003626,-00.000015,-00.005682*62
"
1712236993.1611097,-080.038,+088.901,-129.941,-00.2142,+00.2573,-00.4697,+09.816,+00.189,+00.156,+00.001947,-00.001533,-00.005666,"$VNYMR,-080.038,+088.901,-129.941,-00.2142,+00.2573,-00.4697,+09.816,+00.189,+00.156,+00.001947,-00.001533,-00.005666*61
"
1712236993.1898346,-079.499,+088.899,-129.400,-00.2165,+00.2538,-00.4497,+09.811,+00.250,+00.194,+00.001327,-00.006712,-00.001828,"$VNYMR,-079.499,+088.899,-129.400,-00.2165,+00.2538,-00.4497,+09.811,+00.250,+00.194,+00.001327,-00.006712,-00.001828*6C
"
1712236993.2115595,-078.964,+088.906,-128.862,-00.2143,+00.2526,-00.4603,+09.870,+00.246,+00.173,+00.001757,-00.010042,+00.005553,"$VNYMR,-078.964,+088.906,-128.862,-00.2143,+00.2526,-00.4603,+09.870,+00.246,+00.173,+00.001757,-00.010042,+00.005553*64
"
1712236993.2381575,-078.409,+088.925,-128.305,-00.2143,+00.2526,-00.4589,+09.881,+00.224,+00.189,+00.001379,-00.019141,+00.008143,"$VNYMR,-078.409,+088.925,-128.305,-00.2143,+00.2526,-00.4589,+09.881,+00.224,+00.189,+00.001379,-00.019141,+00.008143*6C
"
1712236993.261344,-077.763,+088.952,-127.655,-00.2163,+00.2621,-00.4565,+09.867,+00.178,+00.131,+00.000791,-00.023965,+00.011167,"$VNYMR,-077.763,+088.952,-127.655,-00.2163,+00.2621,-00.4565,+09.867,+00.178,+00.131,+00.000791,-00.023965,+00.011167*6C
"
1712236993.2880218,-076.725,+088.984,-126.614,-00.2119,+00.2596,-00.4616,+09.789,+00.105,+00.072,+00.002219,-00.024228,+00.008130,"$VNYMR,-076.725,+088.984,-126.614,-00.2119,+00.2596,-00.4616,+09.789,+00.105,+00.072,+00.002219,-00.024228,+00.008130*6E
"
1712236993.3143837,-075.392,+089.014,-125.279,-00.2133,+00.2478,-00.4602,+09.784,+00.053,+00.049,+00.001731,-00.023700,+00.002631,"$VNYMR,-075.392,+089.014,-125.279,-00.2133,+00.2478,-00.4602,+09.784,+00.053,+00.049,+00.001731,-00.023700,+00.002631*6B
"
1712236993.3365798,-073.876,+089.033,-123.761,-00.2155,+00.2479,-00.4483,+09.773,+00.058,+00.029,+00.001625,-00.020894,-00.004551,"$VNYMR,-073.876,+089.033,-123.761,-00.2155,+00.2479,-00.4483,+09.773,+00.058,+00.029,+00.001625,-00.020894,-00.004551*6C
"
1712236993.3615334,-072.201,+089.038,-122.084,-00.2132,+00.2525,-00.4629,+09.786,+00.108,+00.017,+00.002046,-00.016029,-00.011156,"$VNYMR,-072.201,+089.038,-122.084,-00.2132,+00.2525,-00.4629,+09.786,+00.108,+00.017,+00.002046,-00.016029,-00.011156*65
"
1712236993.3904133,-070.560,+089.033,-120.441,-00.2132,+00.2502,-00.4509,+09.738,+00.157,+00.043,+00.000772,-00.009487,-00.013123,"$VNYMR,-070.560,+089.033,-120.441,-00.2132,+00.2502,-00.4509,+09.738,+00.157,+00.043,+00.000772,-00.009487,-00.013123*65
"
1712236993.413681,-069.572,+089.021,-119.454,-00.2163,+00.2621,-00.4552,+09.808,+00.204,+00.052,+00.000128,-00.006021,-00.010362,"$VNYMR,-069.572,+089.021,-119.454,-00.2163,+00.2621,-00.4552,+09.808,+00.204,+00.052,+00.000128,-00.006021,-00.010362*68
"
1712236993.4466527,-068.971,+089.009,-118.855,-00.2129,+00.2655,-00.4617,+09.788,+00.279,+00.128,-00.001652,-00.005809,-00.004283,"$VNYMR,-068.971,+089.009,-118.855,-00.2129,+00.2655,-00.4617,+09.788,+00.279,+00.128,-00.001652,-00.005809,-00.004283*69
"
1712236993.4632416,-068.396,+089.010,-118.284,-00.2131,+00.2549,-00.4589,+09.839,+00.255,+00.120,-00.001767,-00.007136,+00.002071,"$VNYMR,-068.396,+089.010,-118.284,-00.2131,+00.2549,-00.4589,+09.839,+00.255,+00.120,-00.001767,-00.007136,+00.002071*6B
"
1712236993.486018,-067.933,+089.020,-117.825,-00.2154,+00.2514,-00.4483,+09.824,+00.202,+00.144,-00.003330,-00.010754,+00.006694,"$VNYMR,-067.933,+089.020,-117.825,-00.2154,+00.2514,-00.4483,+09.824,+00.202,+00.144,-00.003330,-00.010754,+00.006694*69
"
1712236993.5109634,-067.309,+089.038,-117.206,-00.2131,+00.2585,-00.4563,+09.814,+00.145,+00.168,-00.002269,-00.014726,+00.007883,"$VNYMR,-067.309,+089.038,-117.206,-00.2131,+00.2585,-00.4563,+09.814,+00.145,+00.168,-00.002269,-00.014726,+00.007883*65
"
1712236993.5358317,-066.561,+089.054,-116.462,-00.2166,+00.2502,-00.4537,+09.829,+00.065,+00.112,-00.002163,-00.016811,+00.002385,"$VNYMR,-066.561,+089.054,-116.462,-00.2166,+00.2502,-00.4537,+09.829,+00.065,+00.112,-00.002163,-00.016811,+00.002385*67
"
1712236993.5611367,-064.939,+089.065,-114.842,-00.2150,+00.2739,-00.4619,+09.801,+00.051,+00.080,-00.001441,-00.018723,-00.006064,"$VNYMR,-064.939,+089.065,-114.842,-00.2150,+00.2739,-00.4619,+09.801,+00.051,+00.080,-00.001441,-00.018723,-00.006064*65
"
1712236993.5859396,-063.156,+089.062,-113.061,-00.2131,+00.2585,-00.4590,+09.816,+00.056,+00.061,-00.001423,-00.018627,-00.014439,"$VNYMR,-063.156,+089.062,-113.061,-00.2131,+00.2585,-00.4590,+09.816,+00.056,+00.061,-00.001423,-00.018627,-00.014439*6A
"
1712236993.6130273,-061.115,+089.050,-111.023,-00.2142,+00.2585,-00.4577,+09.787,+00.107,+00.042,-00.001245,-00.017210,-00.020027,"$VNYMR,-061.115,+089.050,-111.023,-00.2142,+00.2585,-00.4577,+09.787,+00.107,+00.042,-00.001245,-00.017210,-00.020027*61
"
1712236993.6364129,-059.296,+089.030,-109.209,-00.2153,+00.2585,-00.4471,+09.773,+00.181,+00.061,-00.002044,-00.011410,-00.021800,"$VNYMR,-059.296,+089.030,-109.209,-00.2153,+00.2585,-00.4471,+09.773,+00.181,+00.061,-00.002044,-00.011410,-00.021800*68
"
1712236993.663777,-058.075,+089.007,-107.991,-00.2122,+00.2466,-00.4574,+09.791,+00.262,+00.068,-00.002660,-00.007284,-00.016657,"$VNYMR,-058.075,+089.007,-107.991,-00.2122,+00.2466,-00.4574,+09.791,+00.262,+00.068,-00.002660,-00.007284,-00.016657*67
"
1712236993.6859088,-057.191,+088.991,-107.112,-00.2187,+00.2526,-00.4525,+09.784,+00.273,+00.044,-00.003962,-00.006626,-00.008090,"$VNYMR,-057.191,+088.991,-107.112,-00.2187,+00.2526,-00.4525,+09.784,+00.273,+00.044,-00.003962,-00.006626,-00.008090*60
"
1712236993.712852,-056.850,+088.986,-106.778,-00.2151,+00.2691,-00.4592,+09.807,+00.254,+00.071,-00.004858,-00.004257,+00.000989,"$VNYMR,-056.850,+088.986,-106.778,-00.2151,+00.2691,-00.4592,+09.807,+00.254,+00.071,-00.004858,-00.004257,+00.000989*67
"
1712236993.736161,-056.780,+088.989,-106.716,-00.2131,+00.2573,-00.4563,+09.810,+00.193,+00.065,-00.006243,-00.002537,+00.005466,"$VNYMR,-056.780,+088.989,-106.716,-00.2131,+00.2573,-00.4563,+09.810,+00.193,+00.065,-00.006243,-00.002537,+00.005466*62
"
1712236993.7611485,-056.770,+088.997,-106.716,-00.2155,+00.2490,-00.4603,+09.799,+00.107,+00.098,-00.006963,-00.000772,+00.004050,"$VNYMR,-056.770,+088.997,-106.716,-00.2155,+00.2490,-00.4603,+09.799,+00.107,+00.098,-00.006963,-00.000772,+00.004050*60
"
1712236993.7859714,-056.774,+089.001,-106.730,-00.2166,+00.2491,-00.4470,+09.803,+00.038,+00.109,-00.006206,-00.002182,-00.002828,"$VNYMR,-056.774,+089.001,-106.730,-00.2166,+00.2491,-00.4470,+09.803,+00.038,+00.109,-00.006206,-00.002182,-00.002828*6C
"
1712236993.8112931,-056.472,+088.994,-106.436,-00.2154,+00.2538,-00.4550,+09.810,+00.051,+00.084,-00.005080,-00.002030,-00.011354,"$VNYMR,-056.472,+088.994,-106.436,-00.2154,+00.2538,-00.4550,+09.810,+00.051,+00.084,-00.005080,-00.002030,-00.011354*64
"
1712236993.836046,-055.942,+088.977,-105.915,-00.2143,+00.2514,-00.4496,+09.821,+00.095,+00.125,-00.003979,-00.004423,-00.018623,"$VNYMR,-055.942,+088.977,-105.915,-00.2143,+00.2514,-00.4496,+09.821,+00.095,+00.125,-00.003979,-00.004423,-00.018623*6D
"
1712236993.861006,-055.394,+088.949,-105.372,-00.2163,+00.2621,-00.4485,+09.859,+00.156,+00.114,-00.004146,-00.004359,-00.023834,"$VNYMR,-055.394,+088.949,-105.372,-00.2163,+00.2621,-00.4485,+09.859,+00.156,+00.114,-00.004146,-00.004359,-00.023834*65
"
1712236993.8860097,-054.554,+088.920,-104.539,-00.2153,+00.2561,-00.4564,+09.801,+00.220,+00.108,-00.003336,-00.005972,-00.022725,"$VNYMR,-054.554,+088.920,-104.539,-00.2153,+00.2561,-00.4564,+09.801,+00.220,+00.108,-00.003336,-00.005972,-00.022725*6F
"
1712236993.91382,-053.881,+088.893,-103.872,-00.2144,+00.2467,-00.4589,+09.800,+00.302,+00.093,-00.004272,-00.007993,-00.016180,"$VNYMR,-053.881,+088.893,-103.872,-00.2144,+00.2467,-00.4589,+09.800,+00.302,+00.093,-00.004272,-00.007993,-00.016180*65
"
1712236993.936172,-053.351,+088.876,-103.349,-00.2154,+00.2502,-00.4456,+09.778,+00.271,+00.068,-00.004739,-00.004522,-00.006716,"$VNYMR,-053.351,+088.876,-103.349,-00.2154,+00.2502,-00.4456,+09.778,+00.271,+00.068,-00.004739,-00.004522,-00.006716*6D
"
1712236993.9634492,-053.035,+088.870,-103.041,-00.2155,+00.2455,-00.4656,+09.754,+00.246,+00.061,-00.005655,-00.003741,-00.000311,"$VNYMR,-053.035,+088.870,-103.041,-00.2155,+00.2455,-00.4656,+09.754,+00.246,+00.061,-00.005655,-00.003741,-00.000311*6D
"
1712236993.9863853,-053.012,+088.872,-103.028,-00.2165,+00.2514,-00.4470,+09.722,+00.178,+00.007,-00.006642,+00.004960,+00.002438,"$VNYMR,-053.012,+088.872,-103.028,-00.2165,+00.2514,-00.4470,+09.722,+00.178,+00.007,-00.006642,+00.004960,+00.002438*6A
"
1712236994.012433,-053.387,+088.877,-103.413,-00.2185,+00.2621,-00.4526,+09.749,+00.104,+00.018,-00.006765,+00.007538,+00.002219,"$VNYMR,-053.387,+088.877,-103.413,-00.2185,+00.2621,-00.4526,+09.749,+00.104,+00.018,-00.006765,+00.007538,+00.002219*6E
"
1712236994.0371604,-053.982,+088.875,-104.017,-00.2142,+00.2585,-00.4603,+09.777,+00.082,+00.020,-00.006525,+00.010963,-00.004215,"$VNYMR,-053.982,+088.875,-104.017,-00.2142,+00.2585,-00.4603,+09.777,+00.082,+00.020,-00.006525,+00.010963,-00.004215*61
"
1712236994.0608702,-054.966,+088.860,-105.012,-00.2131,+00.2549,-00.4629,+09.789,+00.052,+00.081,-00.007294,+00.011885,-00.012457,"$VNYMR,-054.966,+088.860,-105.012,-00.2131,+00.2549,-00.4629,+09.789,+00.052,+00.081,-00.007294,+00.011885,-00.012457*64
"
1712236994.0859118,-055.705,+088.836,-105.759,-00.2144,+00.2478,-00.4469,+09.815,+00.134,+00.148,-00.005104,+00.013966,-00.017841,"$VNYMR,-055.705,+088.836,-105.759,-00.2144,+00.2478,-00.4469,+09.815,+00.134,+00.148,-00.005104,+00.013966,-00.017841*65
"
1712236994.110975,-056.198,+088.805,-106.260,-00.2154,+00.2550,-00.4577,+09.843,+00.193,+00.145,-00.005850,+00.008158,-00.018396,"$VNYMR,-056.198,+088.805,-106.260,-00.2154,+00.2550,-00.4577,+09.843,+00.193,+00.145,-00.005850,+00.008158,-00.018396*66
"
1712236994.1359384,-056.597,+088.776,-106.665,-00.2188,+00.2503,-00.4471,+09.830,+00.232,+00.169,-00.005314,+00.007088,-00.015358,"$VNYMR,-056.597,+088.776,-106.665,-00.2188,+00.2503,-00.4471,+09.830,+00.232,+00.169,-00.005314,+00.007088,-00.015358*62
"
1712236994.1641524,-056.746,+088.756,-106.819,-00.2175,+00.2574,-00.4538,+09.859,+00.295,+00.095,-00.003704,+00.001160,-00.008099,"$VNYMR,-056.746,+088.756,-106.819,-00.2175,+00.2574,-00.4538,+09.859,+00.295,+00.095,-00.003704,+00.001160,-00.008099*65
"
1712236994.187219,-056.995,+088.745,-107.073,-00.2154,+00.2550,-00.4617,+09.805,+00.273,+00.124,-00.002991,-00.003693,-00.002032,"$VNYMR,-056.995,+088.745,-107.073,-00.2154,+00.2550,-00.4617,+09.805,+00.273,+00.124,-00.002991,-00.003693,-00.002032*64
"
1712236994.211294,-056.870,+088.747,-106.952,-00.2166,+00.2502,-00.4590,+09.788,+00.221,+00.079,-00.004395,+00.002259,+00.004071,"$VNYMR,-056.870,+088.747,-106.952,-00.2166,+00.2502,-00.4590,+09.788,+00.221,+00.079,-00.004395,+00.002259,+00.004071*63
"
1712236994.2382345,-057.122,+088.752,-107.210,-00.2197,+00.2574,-00.4486,+09.740,+00.136,+00.002,-00.004213,+00.003076,+00.004883,"$VNYMR,-057.122,+088.752,-107.210,-00.2197,+00.2574,-00.4486,+09.740,+00.136,+00.002,-00.004213,+00.003076,+00.004883*64
"
1712236994.2609444,-057.700,+088.754,-107.793,-00.2144,+00.2467,-00.4642,+09.748,+00.105,+00.016,-00.003420,+00.010276,-00.000656,"$VNYMR,-057.700,+088.754,-107.793,-00.2144,+00.2467,-00.4642,+09.748,+00.105,+00.016,-00.003420,+00.010276,-00.000656*65
"
1712236994.2882473,-058.513,+088.746,-108.610,-00.2177,+00.2479,-00.4524,+09.779,+00.074,-00.020,-00.004505,+00.017342,-00.006479,"$VNYMR,-058.513,+088.746,-108.610,-00.2177,+00.2479,-00.4524,+09.779,+00.074,-00.020,-00.004505,+00.017342,-00.006479*6F
"
1712236994.3120062,-059.481,+088.727,-109.583,-00.2175,+00.2609,-00.4592,+09.790,+00.133,+00.061,-00.002828,+00.021489,-00.011694,"$VNYMR,-059.481,+088.727,-109.583,-00.2175,+00.2609,-00.4592,+09.790,+00.133,+00.061,-00.002828,+00.021489,-00.011694*61
"
1712236994.336983,-060.581,+088.702,-110.688,-00.2164,+00.2562,-00.4591,+09.803,+00.162,+00.096,-00.003475,+00.024559,-00.013285,"$VNYMR,-060.581,+088.702,-110.688,-00.2164,+00.2562,-00.4591,+09.803,+00.162,+00.096,-00.003475,+00.024559,-00.013285*63
"
1712236994.3617854,-061.793,+088.674,-111.903,-00.2143,+00.2502,-00.4603,+09.821,+00.252,+00.147,-00.002673,+00.022194,-00.008959,"$VNYMR,-061.793,+088.674,-111.903,-00.2143,+00.2502,-00.4603,+09.821,+00.252,+00.147,-00.002673,+00.022194,-00.008959*6E
"
1712236994.3856163,-062.857,+088.653,-112.970,-00.2188,+00.2491,-00.4485,+09.856,+00.263,+00.154,-00.001763,+00.018077,-00.002895,"$VNYMR,-062.857,+088.653,-112.970,-00.2188,+00.2491,-00.4485,+09.856,+00.263,+00.154,-00.001763,+00.018077,-00.002895*65
"
1712236994.4122884,-063.751,+088.642,-113.865,-00.2189,+00.2456,-00.4631,+09.846,+00.256,+00.205,-00.001886,+00.009565,+00.002616,"$VNYMR,-063.751,+088.642,-113.865,-00.2189,+00.2456,-00.4631,+09.846,+00.256,+00.205,-00.001886,+00.009565,+00.002616*6F
"
1712236994.4373672,-064.536,+088.643,-114.650,-00.2177,+00.2491,-00.4537,+09.843,+00.222,+00.155,-00.001907,+00.008008,+00.007500,"$VNYMR,-064.536,+088.643,-114.650,-00.2177,+00.2491,-00.4537,+09.843,+00.222,+00.155,-00.001907,+00.008008,+00.007500*6C
"
1712236994.4616408,-065.031,+088.653,-115.146,-00.2209,+00.2562,-00.4567,+09.797,+00.137,+00.090,-00.000727,+00.003765,+00.009516,"$VNYMR,-065.031,+088.653,-115.146,-00.2209,+00.2562,-00.4567,+09.797,+00.137,+00.090,-00.000727,+00.003765,+00.009516*67
"
1712236994.486736,-065.554,+088.662,-115.667,-00.2175,+00.2574,-00.4672,+09.785,+00.097,+00.094,+00.000074,+00.005318,+00.004440,"$VNYMR,-065.554,+088.662,-115.667,-00.2175,+00.2574,-00.4672,+09.785,+00.097,+00.094,+00.000074,+00.005318,+00.004440*63
"
1712236994.5118659,-065.966,+088.664,-116.079,-00.2177,+00.2479,-00.4631,+09.780,+00.051,+00.026,+00.000152,+00.008372,-00.000038,"$VNYMR,-065.966,+088.664,-116.079,-00.2177,+00.2479,-00.4631,+09.780,+00.051,+00.026,+00.000152,+00.008372,-00.000038*60
"
1712236994.5354512,-066.369,+088.657,-116.481,-00.2187,+00.2526,-00.4538,+09.794,+00.084,+00.010,-00.000434,+00.013070,-00.006068,"$VNYMR,-066.369,+088.657,-116.481,-00.2187,+00.2526,-00.4538,+09.794,+00.084,+00.010,-00.000434,+00.013070,-00.006068*68
"
1712236994.5615823,-066.996,+088.639,-117.106,-00.2166,+00.2491,-00.4604,+09.775,+00.168,+00.030,+00.000171,+00.016423,-00.007706,"$VNYMR,-066.996,+088.639,-117.106,-00.2166,+00.2491,-00.4604,+09.775,+00.168,+00.030,+00.000171,+00.016423,-00.007706*6A
"
1712236994.585739,-067.948,+088.617,-118.055,-00.2200,+00.2468,-00.4565,+09.803,+00.238,+00.057,+00.000789,+00.022402,-00.006144,"$VNYMR,-067.948,+088.617,-118.055,-00.2200,+00.2468,-00.4565,+09.803,+00.238,+00.057,+00.000789,+00.022402,-00.006144*60
"
1712236994.6144557,-068.829,+088.600,-118.933,-00.2196,+00.2633,-00.4527,+09.811,+00.263,+00.076,-00.000700,+00.022234,+00.000527,"$VNYMR,-068.829,+088.600,-118.933,-00.2196,+00.2633,-00.4527,+09.811,+00.263,+00.076,-00.000700,+00.022234,+00.000527*6B
"
1712236994.6367407,-069.964,+088.591,-120.067,-00.2198,+00.2550,-00.4619,+09.816,+00.273,+00.128,+00.000433,+00.019511,+00.008350,"$VNYMR,-069.964,+088.591,-120.067,-00.2198,+00.2550,-00.4619,+09.816,+00.273,+00.128,+00.000433,+00.019511,+00.008350*63
"
1712236994.6616435,-071.186,+088.593,-121.286,-00.2177,+00.2491,-00.4631,+09.847,+00.218,+00.128,-00.001156,+00.015910,+00.015579,"$VNYMR,-071.186,+088.593,-121.286,-00.2177,+00.2491,-00.4631,+09.847,+00.218,+00.128,-00.001156,+00.015910,+00.015579*6F
"
1712236994.6865983,-072.443,+088.601,-122.540,-00.2199,+00.2491,-00.4525,+09.815,+00.183,+00.137,+00.000531,+00.013520,+00.017943,"$VNYMR,-072.443,+088.601,-122.540,-00.2199,+00.2491,-00.4525,+09.815,+00.183,+00.137,+00.000531,+00.013520,+00.017943*64
"
1712236994.7118547,-073.477,+088.614,-123.570,-00.2178,+00.2455,-00.4590,+09.797,+00.115,+00.159,+00.002276,+00.010358,+00.014287,"$VNYMR,-073.477,+088.614,-123.570,-00.2178,+00.2455,-00.4590,+09.797,+00.115,+00.159,+00.002276,+00.010358,+00.014287*63
"
1712236994.7390456,-074.337,+088.625,-124.425,-00.2200,+00.2468,-00.4578,+09.826,+00.054,+00.171,+00.003664,+00.005835,+00.008530,"$VNYMR,-074.337,+088.625,-124.425,-00.2200,+00.2468,-00.4578,+09.826,+00.054,+00.171,+00.003664,+00.005835,+00.008530*68
"
1712236994.7617772,-074.906,+088.628,-124.987,-00.2186,+00.2597,-00.4512,+09.816,+00.068,+00.072,+00.004209,+00.004379,+00.000032,"$VNYMR,-074.906,+088.628,-124.987,-00.2186,+00.2597,-00.4512,+09.816,+00.068,+00.072,+00.004209,+00.004379,+00.000032*63
"
1712236994.7866416,-075.219,+088.624,-125.291,-00.2198,+00.2562,-00.4619,+09.814,+00.115,+00.077,+00.004209,+00.006102,-00.003193,"$VNYMR,-075.219,+088.624,-125.291,-00.2198,+00.2562,-00.4619,+09.814,+00.115,+00.077,+00.004209,+00.006102,-00.003193*64
"
1712236994.8135397,-075.417,+088.614,-125.480,-00.2177,+00.2503,-00.4631,+09.775,+00.209,+00.105,+00.005509,+00.009309,-00.004796,"$VNYMR,-075.417,+088.614,-125.480,-00.2177,+00.2503,-00.4631,+09.775,+00.209,+00.105,+00.005509,+00.009309,-00.004796*63
"
1712236994.83877,-075.431,+088.608,-125.486,-00.2221,+00.2492,-00.4593,+09.776,+00.278,+00.081,+00.004785,+00.005759,-00.000318,"$VNYMR,-075.431,+088.608,-125.486,-00.2221,+00.2492,-00.4593,+09.776,+00.278,+00.081,+00.004785,+00.005759,-00.000318*6A
"
1712236994.861847,-076.029,+088.603,-126.076,-00.2188,+00.2515,-00.4618,+09.798,+00.275,+00.094,+00.003612,+00.007961,+00.008880,"$VNYMR,-076.029,+088.603,-126.076,-00.2188,+00.2515,-00.4618,+09.798,+00.275,+00.094,+00.003612,+00.007961,+00.008880*6B
"
1712236994.8888788,-076.841,+088.608,-126.882,-00.2188,+00.2467,-00.4538,+09.784,+00.243,+00.073,+00.004737,+00.011316,+00.016752,"$VNYMR,-076.841,+088.608,-126.882,-00.2188,+00.2467,-00.4538,+09.784,+00.243,+00.073,+00.004737,+00.011316,+00.016752*62
"
1712236994.9140797,-077.939,+088.621,-127.973,-00.2208,+00.2586,-00.4580,+09.831,+00.202,+00.077,+00.002794,+00.012011,+00.021176,"$VNYMR,-077.939,+088.621,-127.973,-00.2208,+00.2586,-00.4580,+09.831,+00.202,+00.077,+00.002794,+00.012011,+00.021176*62
"
1712236994.9386442,-079.220,+088.637,-129.249,-00.2186,+00.2597,-00.4659,+09.786,+00.143,+00.081,+00.002919,+00.009796,+00.021127,"$VNYMR,-079.220,+088.637,-129.249,-00.2186,+00.2597,-00.4659,+09.786,+00.143,+00.081,+00.002919,+00.009796,+00.021127*67
"
1712236994.9644284,-080.547,+088.649,-130.570,-00.2188,+00.2479,-00.4591,+09.863,+00.092,+00.126,+00.005446,+00.008687,+00.016179,"$VNYMR,-080.547,+088.649,-130.570,-00.2188,+00.2479,-00.4591,+09.863,+00.092,+00.126,+00.005446,+00.008687,+00.016179*69
"
1712236994.9864028,-081.460,+088.658,-131.476,-00.2222,+00.2456,-00.4539,+09.807,+00.074,+00.134,+00.004459,+00.007152,+00.007683,"$VNYMR,-081.460,+088.658,-131.476,-00.2222,+00.2456,-00.4539,+09.807,+00.074,+00.134,+00.004459,+00.007152,+00.007683*62
"
1712236995.0117416,-081.972,+088.660,-131.980,-00.2209,+00.2527,-00.4646,+09.822,+00.091,+00.116,+00.005178,+00.002099,+00.001983,"$VNYMR,-081.972,+088.660,-131.980,-00.2209,+00.2527,-00.4646,+09.822,+00.091,+00.116,+00.005178,+00.002099,+00.001983*67
"
1712236995.0364628,-081.984,+088.661,-131.983,-00.2219,+00.2586,-00.4607,+09.853,+00.166,+00.119,+00.006515,+00.000237,-00.002045,"$VNYMR,-081.984,+088.661,-131.983,-00.2219,+00.2586,-00.4607,+09.853,+00.166,+00.119,+00.006515,+00.000237,-00.002045*6D
"
1712236995.0614138,-081.777,+088.660,-131.766,-00.2219,+00.2622,-00.4554,+09.829,+00.199,+00.181,+00.005605,-00.004493,-00.001735,"$VNYMR,-081.777,+088.660,-131.766,-00.2219,+00.2622,-00.4554,+09.829,+00.199,+00.181,+00.005605,-00.004493,-00.001735*67
"
1712236995.0865762,-081.440,+088.666,-131.418,-00.2163,+00.2609,-00.4712,+09.826,+00.269,+00.096,+00.006719,-00.006305,+00.005219,"$VNYMR,-081.440,+088.666,-131.418,-00.2163,+00.2609,-00.4712,+09.826,+00.269,+00.096,+00.006719,-00.006305,+00.005219*63
"
1712236995.1116827,-081.258,+088.682,-131.224,-00.2177,+00.2479,-00.4631,+09.789,+00.257,+00.076,+00.006194,-00.008313,+00.010869,"$VNYMR,-081.258,+088.682,-131.224,-00.2177,+00.2479,-00.4631,+09.789,+00.257,+00.076,+00.006194,-00.008313,+00.010869*65
"
1712236995.1365223,-081.308,+088.706,-131.268,-00.2199,+00.2515,-00.4606,+09.795,+00.239,+00.083,+00.004808,-00.004718,+00.018800,"$VNYMR,-081.308,+088.706,-131.268,-00.2199,+00.2515,-00.4606,+09.795,+00.239,+00.083,+00.004808,-00.004718,+00.018800*6E
"
1712236995.164421,-081.853,+088.731,-131.805,-00.2177,+00.2503,-00.4658,+09.780,+00.167,+00.078,+00.004367,-00.005135,+00.020030,"$VNYMR,-081.853,+088.731,-131.805,-00.2177,+00.2503,-00.4658,+09.780,+00.167,+00.078,+00.004367,-00.005135,+00.020030*60
"
1712236995.1864083,-082.474,+088.757,-132.420,-00.2198,+00.2527,-00.4539,+09.791,+00.124,+00.040,+00.004438,-00.000678,+00.017307,"$VNYMR,-082.474,+088.757,-132.420,-00.2198,+00.2527,-00.4539,+09.791,+00.124,+00.040,+00.004438,-00.000678,+00.017307*68
"
1712236995.2138352,-083.187,+088.774,-133.128,-00.2208,+00.2610,-00.4580,+09.795,+00.096,+00.043,+00.003438,+00.005043,+00.011372,"$VNYMR,-083.187,+088.774,-133.128,-00.2208,+00.2610,-00.4580,+09.795,+00.096,+00.043,+00.003438,+00.005043,+00.011372*63
"
1712236995.2364795,-083.756,+088.784,-133.691,-00.2185,+00.2633,-00.4646,+09.818,+00.087,+00.071,+00.004025,+00.002588,+00.004757,"$VNYMR,-083.756,+088.784,-133.691,-00.2185,+00.2633,-00.4646,+09.818,+00.087,+00.071,+00.004025,+00.002588,+00.004757*6B
"
1712236995.2617202,-084.109,+088.784,-134.038,-00.2208,+00.2598,-00.4660,+09.817,+00.101,+00.118,+00.004526,+00.002316,-00.000839,"$VNYMR,-084.109,+088.784,-134.038,-00.2208,+00.2598,-00.4660,+09.817,+00.101,+00.118,+00.004526,+00.002316,-00.000839*6E
"
1712236995.2866504,-084.081,+088.782,-134.004,-00.2198,+00.2527,-00.4579,+09.873,+00.158,+00.217,+00.003886,-00.003877,-00.000583,"$VNYMR,-084.081,+088.782,-134.004,-00.2198,+00.2527,-00.4579,+09.873,+00.158,+00.217,+00.003886,-00.003877,-00.000583*66
"
1712236995.3122892,-083.680,+088.787,-133.595,-00.2177,+00.2491,-00.4617,+09.840,+00.223,+00.192,+00.004627,-00.008764,+00.000665,"$VNYMR,-083.680,+088.787,-133.595,-00.2177,+00.2491,-00.4617,+09.840,+00.223,+00.192,+00.004627,-00.008764,+00.000665*67
"
1712236995.3364801,-083.099,+088.799,-133.007,-00.2210,+00.2515,-00.4619,+09.851,+00.220,+00.169,+00.005069,-00.014181,+00.004965,"$VNYMR,-083.099,+088.799,-133.007,-00.2210,+00.2515,-00.4619,+09.851,+00.220,+00.169,+00.005069,-00.014181,+00.004965*68
"
1712236995.361354,-082.523,+088.820,-132.424,-00.2208,+00.2621,-00.4567,+09.797,+00.240,+00.135,+00.004623,-00.017228,+00.008896,"$VNYMR,-082.523,+088.820,-132.424,-00.2208,+00.2621,-00.4567,+09.797,+00.240,+00.135,+00.004623,-00.017228,+00.008896*62
"
1712236995.3862476,-081.971,+088.851,-131.865,-00.2152,+00.2609,-00.4604,+09.812,+00.197,+00.105,+00.005373,-00.017857,+00.013643,"$VNYMR,-081.971,+088.851,-131.865,-00.2152,+00.2609,-00.4604,+09.812,+00.197,+00.105,+00.005373,-00.017857,+00.013643*61
"
1712236995.413599,-081.551,+088.884,-131.442,-00.2164,+00.2585,-00.4618,+09.767,+00.134,+00.028,+00.003555,-00.017861,+00.014051,"$VNYMR,-081.551,+088.884,-131.442,-00.2164,+00.2585,-00.4618,+09.767,+00.134,+00.028,+00.003555,-00.017861,+00.014051*68
"
1712236995.4361289,-081.148,+088.914,-131.036,-00.2199,+00.2515,-00.4512,+09.785,+00.088,+00.028,+00.002349,-00.014827,+00.009135,"$VNYMR,-081.148,+088.914,-131.036,-00.2199,+00.2515,-00.4512,+09.785,+00.088,+00.028,+00.002349,-00.014827,+00.009135*67
"
1712236995.4613948,-080.647,+088.936,-130.533,-00.2187,+00.2538,-00.4659,+09.754,+00.086,+00.060,+00.001535,-00.009498,+00.004695,"$VNYMR,-080.647,+088.936,-130.533,-00.2187,+00.2538,-00.4659,+09.754,+00.086,+00.060,+00.001535,-00.009498,+00.004695*67
"
1712236995.4892447,-080.122,+088.947,-130.006,-00.2210,+00.2515,-00.4553,+09.817,+00.126,+00.039,+00.002152,-00.004087,-00.001641,"$VNYMR,-080.122,+088.947,-130.006,-00.2210,+00.2515,-00.4553,+09.817,+00.126,+00.039,+00.002152,-00.004087,-00.001641*69
"
1712236995.5113337,-079.661,+088.948,-129.542,-00.2218,+00.2633,-00.4555,+09.769,+00.140,+00.103,+00.002056,-00.004528,-00.005340,"$VNYMR,-079.661,+088.948,-129.542,-00.2218,+00.2633,-00.4555,+09.769,+00.140,+00.103,+00.002056,-00.004528,-00.005340*6F
"
1712236995.536321,-079.096,+088.943,-128.976,-00.2162,+00.2668,-00.4672,+09.852,+00.180,+00.133,+00.001804,-00.003111,-00.005912,"$VNYMR,-079.096,+088.943,-128.976,-00.2162,+00.2668,-00.4672,+09.852,+00.180,+00.133,+00.001804,-00.003111,-00.005912*66
"
1712236995.5646055,-078.459,+088.944,-128.338,-00.2198,+00.2539,-00.4659,+09.825,+00.232,+00.130,+00.001475,-00.007765,-00.000966,"$VNYMR,-078.459,+088.944,-128.338,-00.2198,+00.2539,-00.4659,+09.825,+00.232,+00.130,+00.001475,-00.007765,-00.000966*68
"
1712236995.5891378,-077.932,+088.950,-127.812,-00.2221,+00.2515,-00.4487,+09.849,+00.221,+00.160,+00.000504,-00.009747,+00.004590,"$VNYMR,-077.932,+088.950,-127.812,-00.2221,+00.2515,-00.4487,+09.849,+00.221,+00.160,+00.000504,-00.009747,+00.004590*62
"
1712236995.6111448,-077.069,+088.970,-126.949,-00.2177,+00.2479,-00.4617,+09.816,+00.190,+00.158,-00.000316,-00.019858,+00.006750,"$VNYMR,-077.069,+088.970,-126.949,-00.2177,+00.2479,-00.4617,+09.816,+00.190,+00.158,-00.000316,-00.019858,+00.006750*6E
"
1712236995.6363027,-076.109,+088.995,-125.989,-00.2218,+00.2634,-00.4595,+09.806,+00.147,+00.104,+00.000402,-00.021611,+00.008395,"$VNYMR,-076.109,+088.995,-125.989,-00.2218,+00.2634,-00.4595,+09.806,+00.147,+00.104,+00.000402,-00.021611,+00.008395*69
"
1712236995.6611836,-075.058,+089.019,-124.939,-00.2205,+00.2751,-00.4515,+09.806,+00.093,+00.097,+00.001327,-00.020457,+00.004376,"$VNYMR,-075.058,+089.019,-124.939,-00.2205,+00.2751,-00.4515,+09.806,+00.093,+00.097,+00.001327,-00.020457,+00.004376*6D
"
1712236995.6861897,-073.555,+089.042,-123.437,-00.2175,+00.2585,-00.4685,+09.762,+00.086,+00.060,-00.000377,-00.022140,-00.001263,"$VNYMR,-073.555,+089.042,-123.437,-00.2175,+00.2585,-00.4685,+09.762,+00.086,+00.060,-00.000377,-00.022140,-00.001263*68
"
1712236995.7111397,-071.734,+089.054,-121.617,-00.2176,+00.2514,-00.4604,+09.761,+00.096,+00.051,-00.000667,-00.018635,-00.007544,"$VNYMR,-071.734,+089.054,-121.617,-00.2176,+00.2514,-00.4604,+09.761,+00.096,+00.051,-00.000667,-00.018635,-00.007544*64
"
1712236995.7362638,-070.138,+089.054,-120.022,-00.2208,+00.2586,-00.4473,+09.768,+00.112,-00.006,-00.001978,-00.010926,-00.011776,"$VNYMR,-070.138,+089.054,-120.022,-00.2208,+00.2586,-00.4473,+09.768,+00.112,-00.006,-00.001978,-00.010926,-00.011776*6C
"
1712236995.7613657,-068.646,+089.047,-118.532,-00.2199,+00.2479,-00.4578,+09.781,+00.185,+00.026,-00.001480,-00.008124,-00.012978,"$VNYMR,-068.646,+089.047,-118.532,-00.2199,+00.2479,-00.4578,+09.781,+00.185,+00.026,-00.001480,-00.008124,-00.012978*61
"
1712236995.7861388,-067.665,+089.035,-117.555,-00.2220,+00.2539,-00.4527,+09.786,+00.219,+00.092,-00.003156,-00.005304,-00.010764,"$VNYMR,-067.665,+089.035,-117.555,-00.2220,+00.2539,-00.4527,+09.786,+00.219,+00.092,-00.003156,-00.005304,-00.010764*64
"
1712236995.811084,-066.917,+089.027,-116.812,-00.2208,+00.2621,-00.4527,+09.804,+00.255,+00.097,-00.003331,-00.003588,-00.003944,"$VNYMR,-066.917,+089.027,-116.812,-00.2208,+00.2621,-00.4527,+09.804,+00.255,+00.097,-00.003331,-00.003588,-00.003944*62
"
1712236995.8376212,-066.767,+089.024,-116.668,-00.2197,+00.2598,-00.4620,+09.828,+00.233,+00.098,-00.004275,-00.009484,+00.001703,"$VNYMR,-066.767,+089.024,-116.668,-00.2197,+00.2598,-00.4620,+09.828,+00.233,+00.098,-00.004275,-00.009484,+00.001703*62
"
1712236995.8613894,-066.313,+089.031,-116.221,-00.2174,+00.2621,-00.4659,+09.837,+00.172,+00.131,-00.004409,-00.008725,+00.004468,"$VNYMR,-066.313,+089.031,-116.221,-00.2174,+00.2621,-00.4659,+09.837,+00.172,+00.131,-00.004409,-00.008725,+00.004468*6F
"
1712236995.8861017,-065.591,+089.044,-115.505,-00.2187,+00.2550,-00.4499,+09.808,+00.139,+00.121,-00.003613,-00.014502,+00.003526,"$VNYMR,-065.591,+089.044,-115.505,-00.2187,+00.2550,-00.4499,+09.808,+00.139,+00.121,-00.003613,-00.014502,+00.003526*6D
"
1712236995.913643,-064.758,+089.051,-114.679,-00.2208,+00.2621,-00.4567,+09.842,+00.074,+00.099,-00.003870,-00.014350,-00.001717,"$VNYMR,-064.758,+089.051,-114.679,-00.2208,+00.2621,-00.4567,+09.842,+00.074,+00.099,-00.003870,-00.014350,-00.001717*6D
"
1712236995.936186,-063.394,+089.054,-113.322,-00.2209,+00.2539,-00.4526,+09.804,+00.076,+00.084,-00.004684,-00.016428,-00.009079,"$VNYMR,-063.394,+089.054,-113.322,-00.2209,+00.2539,-00.4526,+09.804,+00.076,+00.084,-00.004684,-00.016428,-00.009079*6A
"
1712236995.9634569,-061.755,+089.047,-111.689,-00.2218,+00.2645,-00.4488,+09.784,+00.086,+00.093,-00.002454,-00.014434,-00.015070,"$VNYMR,-061.755,+089.047,-111.689,-00.2218,+00.2645,-00.4488,+09.784,+00.086,+00.093,-00.002454,-00.014434,-00.015070*64
"
1712236995.9859624,-060.076,+089.031,-110.017,-00.2197,+00.2621,-00.4620,+09.770,+00.137,+00.024,-00.003964,-00.012365,-00.020216,"$VNYMR,-060.076,+089.031,-110.017,-00.2197,+00.2621,-00.4620,+09.770,+00.137,+00.024,-00.003964,-00.012365,-00.020216*66
"
1712236996.013998,-058.724,+089.009,-108.671,-00.2188,+00.2515,-00.4565,+09.765,+00.197,+00.073,-00.003400,-00.009200,-00.018266,"$VNYMR,-058.724,+089.009,-108.671,-00.2188,+00.2515,-00.4565,+09.765,+00.197,+00.073,-00.003400,-00.009200,-00.018266*66
"
1712236996.0363815,-057.714,+088.988,-107.669,-00.2254,+00.2528,-00.4448,+09.779,+00.234,+00.054,-00.005784,-00.007955,-00.014313,"$VNYMR,-057.714,+088.988,-107.669,-00.2254,+00.2528,-00.4448,+09.779,+00.234,+00.054,-00.005784,-00.007955,-00.014313*6E
"
1712236996.061099,-057.064,+088.974,-107.027,-00.2188,+00.2479,-00.4538,+09.785,+00.250,+00.056,-00.005088,-00.003197,-00.006574,"$VNYMR,-057.064,+088.974,-107.027,-00.2188,+00.2479,-00.4538,+09.785,+00.250,+00.056,-00.005088,-00.003197,-00.006574*6E
"
1712236996.0859854,-056.547,+088.969,-106.520,-00.2221,+00.2527,-00.4513,+09.792,+00.215,+00.063,-00.005814,-00.001471,-00.001187,"$VNYMR,-056.547,+088.969,-106.520,-00.2221,+00.2527,-00.4513,+09.792,+00.215,+00.063,-00.005814,-00.001471,-00.001187*6B
"
1712236996.1111655,-056.634,+088.968,-106.617,-00.2239,+00.2693,-00.4583,+09.793,+00.190,+00.100,-00.006913,-00.000827,+00.001567,"$VNYMR,-056.634,+088.968,-106.617,-00.2239,+00.2693,-00.4583,+09.793,+00.190,+00.100,-00.006913,-00.000827,+00.001567*6A
"
1712236996.1387894,-056.847,+088.969,-106.841,-00.2198,+00.2562,-00.4579,+09.786,+00.102,+00.092,-00.007617,+00.000198,-00.000871,"$VNYMR,-056.847,+088.969,-106.841,-00.2198,+00.2562,-00.4579,+09.786,+00.102,+00.092,-00.007617,+00.000198,-00.000871*65
"
1712236996.1630886,-056.803,+088.967,-106.807,-00.2187,+00.2538,-00.4552,+09.812,+00.082,+00.141,-00.006994,+00.000093,-00.006825,"$VNYMR,-056.803,+088.967,-106.807,-00.2187,+00.2538,-00.4552,+09.812,+00.082,+00.141,-00.006994,+00.000093,-00.006825*6D
"
1712236996.1862447,-056.741,+088.956,-106.756,-00.2233,+00.2480,-00.4473,+09.806,+00.063,+00.145,-00.006341,+00.000294,-00.012474,"$VNYMR,-056.741,+088.956,-106.756,-00.2233,+00.2480,-00.4473,+09.806,+00.063,+00.145,-00.006341,+00.000294,-00.012474*65
"
1712236996.211143,-056.368,+088.936,-106.390,-00.2177,+00.2467,-00.4617,+09.827,+00.117,+00.101,-00.005173,-00.002116,-00.017827,"$VNYMR,-056.368,+088.936,-106.390,-00.2177,+00.2467,-00.4617,+09.827,+00.117,+00.101,-00.005173,-00.002116,-00.017827*6B
"
1712236996.2388341,-055.992,+088.909,-106.022,-00.2219,+00.2586,-00.4527,+09.829,+00.162,+00.113,-00.005354,-00.005227,-00.019855,"$VNYMR,-055.992,+088.909,-106.022,-00.2219,+00.2586,-00.4527,+09.829,+00.162,+00.113,-00.005354,-00.005227,-00.019855*61
"
1712236996.2615614,-055.199,+088.882,-105.235,-00.2219,+00.2622,-00.4514,+09.793,+00.230,+00.080,-00.004870,-00.003157,-00.019385,"$VNYMR,-055.199,+088.882,-105.235,-00.2219,+00.2622,-00.4514,+09.793,+00.230,+00.080,-00.004870,-00.003157,-00.019385*63
"
1712236996.288363,-054.693,+088.861,-104.736,-00.2220,+00.2539,-00.4634,+09.787,+00.264,+00.054,-00.005124,-00.004412,-00.012192,"$VNYMR,-054.693,+088.861,-104.736,-00.2220,+00.2539,-00.4634,+09.787,+00.264,+00.054,-00.005124,-00.004412,-00.012192*6F
"
1712236996.3112445,-054.264,+088.847,-104.314,-00.2189,+00.2456,-00.4578,+09.775,+00.244,+00.050,-00.004668,-00.000201,-00.005679,"$VNYMR,-054.264,+088.847,-104.314,-00.2189,+00.2456,-00.4578,+09.775,+00.244,+00.050,-00.004668,-00.000201,-00.005679*61
"
1712236996.336139,-054.183,+088.843,-104.240,-00.2210,+00.2491,-00.4459,+09.785,+00.213,+00.047,-00.005375,-00.001213,-00.001105,"$VNYMR,-054.183,+088.843,-104.240,-00.2210,+00.2491,-00.4459,+09.785,+00.213,+00.047,-00.005375,-00.001213,-00.001105*6C
"
1712236996.361768,-054.470,+088.843,-104.536,-00.2211,+00.2444,-00.4579,+09.773,+00.169,+00.019,-00.006572,+00.007756,+00.001378,"$VNYMR,-054.470,+088.843,-104.536,-00.2211,+00.2444,-00.4579,+09.773,+00.169,+00.019,-00.006572,+00.007756,+00.001378*6D
"
1712236996.386147,-055.148,+088.841,-105.222,-00.2232,+00.2515,-00.4501,+09.763,+00.115,+00.050,-00.006683,+00.007381,-00.001756,"$VNYMR,-055.148,+088.841,-105.222,-00.2232,+00.2515,-00.4501,+09.763,+00.115,+00.050,-00.006683,+00.007381,-00.001756*62
"
1712236996.4145327,-055.926,+088.834,-106.009,-00.2206,+00.2681,-00.4595,+09.787,+00.107,+00.055,-00.005677,+00.013125,-00.007231,"$VNYMR,-055.926,+088.834,-106.009,-00.2206,+00.2681,-00.4595,+09.787,+00.107,+00.055,-00.005677,+00.013125,-00.007231*63
"
1712236996.4363682,-056.789,+088.817,-106.880,-00.2175,+00.2562,-00.4578,+09.820,+00.102,+00.104,-00.006330,+00.014161,-00.012091,"$VNYMR,-056.789,+088.817,-106.880,-00.2175,+00.2562,-00.4578,+09.820,+00.102,+00.104,-00.006330,+00.014161,-00.012091*65
"
1712236996.4632564,-057.611,+088.793,-107.708,-00.2197,+00.2621,-00.4580,+09.791,+00.160,+00.144,-00.004621,+00.014276,-00.015762,"$VNYMR,-057.611,+088.793,-107.708,-00.2197,+00.2621,-00.4580,+09.791,+00.160,+00.144,-00.004621,+00.014276,-00.015762*6D
"
1712236996.4881625,-058.292,+088.765,-108.395,-00.2212,+00.2420,-00.4458,+09.861,+00.211,+00.122,-00.003297,+00.009476,-00.015052,"$VNYMR,-058.292,+088.765,-108.395,-00.2212,+00.2420,-00.4458,+09.861,+00.211,+00.122,-00.003297,+00.009476,-00.015052*67
"
1712236996.5133235,-058.751,+088.740,-108.856,-00.2188,+00.2503,-00.4578,+09.834,+00.245,+00.177,-00.003008,+00.006149,-00.011636,"$VNYMR,-058.751,+088.740,-108.856,-00.2188,+00.2503,-00.4578,+09.834,+00.245,+00.177,-00.003008,+00.006149,-00.011636*6E
"
1712236996.538773,-058.827,+088.726,-108.936,-00.2199,+00.2491,-00.4579,+09.842,+00.260,+00.132,-00.002492,+00.003198,-00.005805,"$VNYMR,-058.827,+088.726,-108.936,-00.2199,+00.2491,-00.4579,+09.842,+00.260,+00.132,-00.002492,+00.003198,-00.005805*6F
"
1712236996.5608773,-059.100,+088.719,-109.212,-00.2232,+00.2527,-00.4554,+09.815,+00.229,+00.126,-00.002326,+00.003419,-00.000514,"$VNYMR,-059.100,+088.719,-109.212,-00.2232,+00.2527,-00.4554,+09.815,+00.229,+00.126,-00.002326,+00.003419,-00.000514*65
"
1712236996.5888338,-059.320,+088.721,-109.436,-00.2220,+00.2563,-00.4594,+09.805,+00.187,+00.069,-00.002181,+00.004238,+00.003318,"$VNYMR,-059.320,+088.721,-109.436,-00.2220,+00.2563,-00.4594,+09.805,+00.187,+00.069,-00.002181,+00.004238,+00.003318*6F
"
1712236996.611106,-059.778,+088.724,-109.898,-00.2199,+00.2491,-00.4605,+09.772,+00.123,-00.003,-00.003378,+00.008470,+00.002239,"$VNYMR,-059.778,+088.724,-109.898,-00.2199,+00.2491,-00.4605,+09.772,+00.123,-00.003,-00.003378,+00.008470,+00.002239*66
"
1712236996.635668,-060.312,+088.724,-110.435,-00.2244,+00.2457,-00.4487,+09.733,+00.115,+00.036,-00.002227,+00.012440,-00.000922,"$VNYMR,-060.312,+088.724,-110.435,-00.2244,+00.2457,-00.4487,+09.733,+00.115,+00.036,-00.002227,+00.012440,-00.000922*61
"
1712236996.660871,-061.043,+088.716,-111.170,-00.2188,+00.2503,-00.4605,+09.772,+00.093,+00.039,-00.002848,+00.016246,-00.006592,"$VNYMR,-061.043,+088.716,-111.170,-00.2188,+00.2503,-00.4605,+09.772,+00.093,+00.039,-00.002848,+00.016246,-00.006592*6B
"
1712236996.6860142,-061.992,+088.699,-112.120,-00.2210,+00.2480,-00.4512,+09.776,+00.142,+00.048,-00.001404,+00.020441,-00.008015,"$VNYMR,-061.992,+088.699,-112.120,-00.2210,+00.2480,-00.4512,+09.776,+00.142,+00.048,-00.001404,+00.020441,-00.008015*6B
"
1712236996.7110798,-062.872,+088.677,-113.001,-00.2219,+00.2598,-00.4514,+09.795,+00.196,+00.120,-00.001952,+00.020283,-00.009046,"$VNYMR,-062.872,+088.677,-113.001,-00.2219,+00.2598,-00.4514,+09.795,+00.196,+00.120,-00.001952,+00.020283,-00.009046*69
"
1712236996.7386749,-064.039,+088.654,-114.168,-00.2220,+00.2551,-00.4607,+09.836,+00.240,+00.141,-00.001674,+00.023333,-00.004622,"$VNYMR,-064.039,+088.654,-114.168,-00.2220,+00.2551,-00.4607,+09.836,+00.240,+00.141,-00.001674,+00.023333,-00.004622*6C
"
1712236996.7609797,-065.045,+088.639,-115.174,-00.2198,+00.2539,-00.4646,+09.834,+00.234,+00.149,-00.000975,+00.015538,-00.000207,"$VNYMR,-065.045,+088.639,-115.174,-00.2198,+00.2539,-00.4646,+09.834,+00.234,+00.149,-00.000975,+00.015538,-00.000207*63
"
1712236996.785891,-066.129,+088.631,-116.256,-00.2220,+00.2551,-00.4540,+09.861,+00.232,+00.155,-00.000396,+00.013506,+00.005895,"$VNYMR,-066.129,+088.631,-116.256,-00.2220,+00.2551,-00.4540,+09.861,+00.232,+00.155,-00.000396,+00.013506,+00.005895*6D
"
1712236996.8110979,-067.128,+088.632,-117.254,-00.2232,+00.2504,-00.4580,+09.813,+00.196,+00.131,+00.000386,+00.008246,+00.010223,"$VNYMR,-067.128,+088.632,-117.254,-00.2232,+00.2504,-00.4580,+09.813,+00.196,+00.131,+00.000386,+00.008246,+00.010223*65
"
1712236996.8359728,-067.682,+088.641,-117.804,-00.2233,+00.2480,-00.4527,+09.796,+00.135,+00.106,+00.001794,+00.006661,+00.007788,"$VNYMR,-067.682,+088.641,-117.804,-00.2233,+00.2480,-00.4527,+09.796,+00.135,+00.106,+00.001794,+00.006661,+00.007788*6C
"
1712236996.8630748,-068.373,+088.647,-118.491,-00.2197,+00.2609,-00.4580,+09.789,+00.099,+00.093,+00.001189,+00.008010,+00.005128,"$VNYMR,-068.373,+088.647,-118.491,-00.2197,+00.2609,-00.4580,+09.789,+00.099,+00.093,+00.001189,+00.008010,+00.005128*6C
"
1712236996.8861334,-068.896,+088.648,-119.010,-00.2198,+00.2562,-00.4619,+09.805,+00.115,+00.053,+00.003409,+00.009178,+00.000170,"$VNYMR,-068.896,+088.648,-119.010,-00.2198,+00.2562,-00.4619,+09.805,+00.115,+00.053,+00.003409,+00.009178,+00.000170*66
"
1712236996.9129882,-069.300,+088.642,-119.409,-00.2210,+00.2515,-00.4633,+09.819,+00.110,+00.023,+00.003223,+00.014614,-00.003214,"$VNYMR,-069.300,+088.642,-119.409,-00.2210,+00.2515,-00.4633,+09.819,+00.110,+00.023,+00.003223,+00.014614,-00.003214*6A
"
1712236996.9360883,-070.016,+088.627,-120.119,-00.2231,+00.2539,-00.4501,+09.786,+00.172,+00.025,+00.003765,+00.017893,-00.003180,"$VNYMR,-070.016,+088.627,-120.119,-00.2231,+00.2539,-00.4501,+09.786,+00.172,+00.025,+00.003765,+00.017893,-00.003180*64
"
1712236996.9609537,-070.700,+088.614,-120.797,-00.2221,+00.2515,-00.4607,+09.808,+00.241,+00.050,+00.002026,+00.020732,-00.000342,"$VNYMR,-070.700,+088.614,-120.797,-00.2221,+00.2515,-00.4607,+09.808,+00.241,+00.050,+00.002026,+00.020732,-00.000342*68
"
1712236996.986091,-071.744,+088.600,-121.836,-00.2221,+00.2480,-00.4513,+09.779,+00.247,+00.104,+00.004246,+00.019941,+00.004828,"$VNYMR,-071.744,+088.600,-121.836,-00.2221,+00.2480,-00.4513,+09.779,+00.247,+00.104,+00.004246,+00.019941,+00.004828*6A
"
1712236997.013815,-072.941,+088.593,-123.027,-00.2253,+00.2587,-00.4569,+09.814,+00.260,+00.126,+00.001895,+00.018196,+00.011213,"$VNYMR,-072.941,+088.593,-123.027,-00.2253,+00.2587,-00.4569,+09.814,+00.260,+00.126,+00.001895,+00.018196,+00.011213*6A
"
1712236997.0355809,-074.317,+088.594,-124.397,-00.2208,+00.2586,-00.4634,+09.839,+00.188,+00.147,+00.002574,+00.013492,+00.015606,"$VNYMR,-074.317,+088.594,-124.397,-00.2208,+00.2586,-00.4634,+09.839,+00.188,+00.147,+00.002574,+00.013492,+00.015606*6B
"
1712236997.062855,-075.632,+088.602,-125.707,-00.2200,+00.2456,-00.4605,+09.817,+00.169,+00.141,+00.003348,+00.012265,+00.016510,"$VNYMR,-075.632,+088.602,-125.707,-00.2200,+00.2456,-00.4605,+09.817,+00.169,+00.141,+00.003348,+00.012265,+00.016510*6B
"
1712236997.0858343,-076.601,+088.614,-126.670,-00.2233,+00.2480,-00.4527,+09.814,+00.112,+00.151,+00.004517,+00.006576,+00.012909,"$VNYMR,-076.601,+088.614,-126.670,-00.2233,+00.2480,-00.4527,+09.814,+00.112,+00.151,+00.004517,+00.006576,+00.012909*60
"
1712236997.1109335,-077.330,+088.623,-127.391,-00.2221,+00.2527,-00.4607,+09.848,+00.078,+00.120,+00.004936,+00.004576,+00.007998,"$VNYMR,-077.330,+088.623,-127.391,-00.2221,+00.2527,-00.4607,+09.848,+00.078,+00.120,+00.004936,+00.004576,+00.007998*64
"
1712236997.137947,-077.821,+088.627,-127.874,-00.2221,+00.2503,-00.4553,+09.798,+00.106,+00.132,+00.005831,+00.004995,+00.001160,"$VNYMR,-077.821,+088.627,-127.874,-00.2221,+00.2503,-00.4553,+09.798,+00.106,+00.132,+00.005831,+00.004995,+00.001160*69
"
1712236997.1605809,-078.127,+088.624,-128.170,-00.2219,+00.2586,-00.4554,+09.818,+00.159,+00.101,+00.006184,+00.004093,-00.001347,"$VNYMR,-078.127,+088.624,-128.170,-00.2219,+00.2586,-00.4554,+09.818,+00.159,+00.101,+00.006184,+00.004093,-00.001347*6E
"
1712236997.1857088,-078.173,+088.623,-128.207,-00.2220,+00.2574,-00.4634,+09.819,+00.204,+00.084,+00.005579,+00.004527,+00.001054,"$VNYMR,-078.173,+088.623,-128.207,-00.2220,+00.2574,-00.4634,+09.819,+00.204,+00.084,+00.005579,+00.004527,+00.001054*67
"
1712236997.2110248,-078.417,+088.621,-128.441,-00.2221,+00.2504,-00.4673,+09.796,+00.229,+00.060,+00.005714,+00.004540,+00.004686,"$VNYMR,-078.417,+088.621,-128.441,-00.2221,+00.2504,-00.4673,+09.796,+00.229,+00.060,+00.005714,+00.004540,+00.004686*6A
"
1712236997.2383444,-079.005,+088.622,-129.021,-00.2220,+00.2563,-00.4514,+09.798,+00.260,+00.070,+00.004627,+00.008790,+00.011662,"$VNYMR,-079.005,+088.622,-129.021,-00.2220,+00.2563,-00.4514,+09.798,+00.260,+00.070,+00.004627,+00.008790,+00.011662*61
"
1712236997.260571,-079.791,+088.631,-129.799,-00.2210,+00.2480,-00.4619,+09.800,+00.228,+00.105,+00.004281,+00.006481,+00.016553,"$VNYMR,-079.791,+088.631,-129.799,-00.2210,+00.2480,-00.4619,+09.800,+00.228,+00.105,+00.004281,+00.006481,+00.016553*6E
"
1712236997.2857094,-080.815,+088.645,-130.816,-00.2243,+00.2504,-00.4541,+09.836,+00.163,+00.112,+00.004626,+00.008345,+00.020429,"$VNYMR,-080.815,+088.645,-130.816,-00.2243,+00.2504,-00.4541,+09.836,+00.163,+00.112,+00.004626,+00.008345,+00.020429*63
"
1712236997.3125803,-081.981,+088.660,-131.974,-00.2230,+00.2598,-00.4635,+09.831,+00.095,+00.094,+00.004444,+00.008072,+00.018626,"$VNYMR,-081.981,+088.660,-131.974,-00.2230,+00.2598,-00.4635,+09.831,+00.095,+00.094,+00.004444,+00.008072,+00.018626*6B
"
1712236997.3356924,-083.066,+088.672,-133.052,-00.2198,+00.2550,-00.4633,+09.799,+00.094,+00.128,+00.004027,+00.005618,+00.014718,"$VNYMR,-083.066,+088.672,-133.052,-00.2198,+00.2550,-00.4633,+09.799,+00.094,+00.128,+00.004027,+00.005618,+00.014718*6A
"
1712236997.3632684,-083.736,+088.682,-133.714,-00.2199,+00.2491,-00.4619,+09.836,+00.081,+00.138,+00.005044,+00.004303,+00.007944,"$VNYMR,-083.736,+088.682,-133.714,-00.2199,+00.2491,-00.4619,+09.836,+00.081,+00.138,+00.005044,+00.004303,+00.007944*67
"
1712236997.3884263,-084.051,+088.689,-134.021,-00.2233,+00.2456,-00.4567,+09.813,+00.114,+00.131,+00.005709,+00.000546,+00.002825,"$VNYMR,-084.051,+088.689,-134.021,-00.2233,+00.2456,-00.4567,+09.813,+00.114,+00.131,+00.005709,+00.000546,+00.002825*64
"
1712236997.4108498,-084.117,+088.693,-134.079,-00.2209,+00.2562,-00.4620,+09.832,+00.154,+00.123,+00.005931,-00.000636,+00.000346,"$VNYMR,-084.117,+088.693,-134.079,-00.2209,+00.2562,-00.4620,+09.832,+00.154,+00.123,+00.005931,-00.000636,+00.000346*61
"
1712236997.439987,-083.802,+088.699,-133.754,-00.2219,+00.2598,-00.4621,+09.799,+00.223,+00.116,+00.005496,-00.006928,+00.002298,"$VNYMR,-083.802,+088.699,-133.754,-00.2219,+00.2598,-00.4621,+09.799,+00.223,+00.116,+00.005496,-00.006928,+00.002298*66
"
1712236997.461595,-083.417,+088.712,-133.359,-00.2241,+00.2634,-00.4582,+09.829,+00.239,+00.114,+00.006323,-00.006073,+00.005757,"$VNYMR,-083.417,+088.712,-133.359,-00.2241,+00.2634,-00.4582,+09.829,+00.239,+00.114,+00.006323,-00.006073,+00.005757*66
"
1712236997.4855983,-083.250,+088.731,-133.185,-00.2220,+00.2563,-00.4661,+09.788,+00.258,+00.081,+00.004478,-00.008291,+00.011193,"$VNYMR,-083.250,+088.731,-133.185,-00.2220,+00.2563,-00.4661,+09.788,+00.258,+00.081,+00.004478,-00.008291,+00.011193*67
"
1712236997.510613,-083.352,+088.756,-133.281,-00.2186,+00.2574,-00.4659,+09.836,+00.194,+00.053,+00.004516,-00.006555,+00.016376,"$VNYMR,-083.352,+088.756,-133.281,-00.2186,+00.2574,-00.4659,+09.836,+00.194,+00.053,+00.004516,-00.006555,+00.016376*60
"
1712236997.535269,-083.672,+088.782,-133.596,-00.2211,+00.2456,-00.4512,+09.770,+00.154,+00.082,+00.003200,-00.007785,+00.016795,"$VNYMR,-083.672,+088.782,-133.596,-00.2211,+00.2456,-00.4512,+09.770,+00.154,+00.082,+00.003200,-00.007785,+00.016795*62
"
1712236997.5634866,-084.098,+088.806,-134.017,-00.2199,+00.2503,-00.4659,+09.790,+00.115,+00.065,+00.003246,-00.004037,+00.015272,"$VNYMR,-084.098,+088.806,-134.017,-00.2199,+00.2503,-00.4659,+09.790,+00.115,+00.065,+00.003246,-00.004037,+00.015272*63
"
1712236997.5856535,-084.477,+088.825,-134.392,-00.2232,+00.2527,-00.4554,+09.774,+00.098,+00.063,+00.002239,-00.001159,+00.010914,"$VNYMR,-084.477,+088.825,-134.392,-00.2232,+00.2527,-00.4554,+09.774,+00.098,+00.063,+00.002239,-00.001159,+00.010914*60
"
1712236997.6121404,-084.906,+088.832,-134.816,-00.2241,+00.2622,-00.4582,+09.818,+00.091,+00.081,+00.003216,+00.000499,+00.004051,"$VNYMR,-084.906,+088.832,-134.816,-00.2241,+00.2622,-00.4582,+09.818,+00.091,+00.081,+00.003216,+00.000499,+00.004051*6C
"
1712236997.6365235,-084.946,+088.837,-134.851,-00.2207,+00.2633,-00.4634,+09.843,+00.140,+00.172,+00.002814,-00.000041,-00.000324,"$VNYMR,-084.946,+088.837,-134.851,-00.2207,+00.2633,-00.4634,+09.843,+00.140,+00.172,+00.002814,-00.000041,-00.000324*61
"
1712236997.6637096,-084.739,+088.839,-134.640,-00.2197,+00.2621,-00.4647,+09.871,+00.183,+00.166,+00.002879,-00.004150,-00.001309,"$VNYMR,-084.739,+088.839,-134.640,-00.2197,+00.2621,-00.4647,+09.871,+00.183,+00.166,+00.002879,-00.004150,-00.001309*61
"
1712236997.6853004,-084.295,+088.845,-134.192,-00.2221,+00.2527,-00.4500,+09.858,+00.207,+00.179,+00.002480,-00.010778,+00.001840,"$VNYMR,-084.295,+088.845,-134.192,-00.2221,+00.2527,-00.4500,+09.858,+00.207,+00.179,+00.002480,-00.010778,+00.001840*63
"
1712236997.7103763,-083.654,+088.861,-133.547,-00.2211,+00.2468,-00.4659,+09.826,+00.221,+00.163,+00.004022,-00.015543,+00.005366,"$VNYMR,-083.654,+088.861,-133.547,-00.2211,+00.2468,-00.4659,+09.826,+00.221,+00.163,+00.004022,-00.015543,+00.005366*6E
"
1712236997.7353287,-083.193,+088.882,-133.081,-00.2209,+00.2527,-00.4540,+09.816,+00.189,+00.125,+00.002063,-00.016026,+00.009665,"$VNYMR,-083.193,+088.882,-133.081,-00.2209,+00.2527,-00.4540,+09.816,+00.189,+00.125,+00.002063,-00.016026,+00.009665*64
"
1712236997.764121,-082.642,+088.910,-132.528,-00.2230,+00.2634,-00.4595,+09.809,+00.159,+00.112,+00.001111,-00.019195,+00.011664,"$VNYMR,-082.642,+088.910,-132.528,-00.2230,+00.2634,-00.4595,+09.809,+00.159,+00.112,+00.001111,-00.019195,+00.011664*6E
"
1712236997.7864351,-082.069,+088.939,-131.953,-00.2184,+00.2680,-00.4647,+09.769,+00.109,+00.041,+00.000347,-00.017178,+00.009472,"$VNYMR,-082.069,+088.939,-131.953,-00.2184,+00.2680,-00.4647,+09.769,+00.109,+00.041,+00.000347,-00.017178,+00.009472*6C
"
1712236997.8138652,-081.339,+088.966,-131.223,-00.2197,+00.2574,-00.4646,+09.785,+00.117,+00.046,+00.000483,-00.015326,+00.004854,"$VNYMR,-081.339,+088.966,-131.223,-00.2197,+00.2574,-00.4646,+09.785,+00.117,+00.046,+00.000483,-00.015326,+00.004854*6F
"
1712236997.83557,-080.792,+088.981,-130.677,-00.2210,+00.2515,-00.4486,+09.746,+00.105,+00.069,-00.000167,-00.009581,+00.000070,"$VNYMR,-080.792,+088.981,-130.677,-00.2210,+00.2515,-00.4486,+09.746,+00.105,+00.069,-00.000167,-00.009581,+00.000070*67
"
1712236997.8615909,-080.119,+088.988,-130.004,-00.2220,+00.2551,-00.4580,+09.805,+00.112,+00.066,+00.000332,-00.005874,-00.003663,"$VNYMR,-080.119,+088.988,-130.004,-00.2220,+00.2551,-00.4580,+09.805,+00.112,+00.066,+00.000332,-00.005874,-00.003663*62
"
1712236997.888277,-079.461,+088.987,-129.347,-00.2209,+00.2539,-00.4500,+09.798,+00.162,+00.104,+00.000109,-00.004928,-00.005549,"$VNYMR,-079.461,+088.987,-129.347,-00.2209,+00.2539,-00.4500,+09.798,+00.162,+00.104,+00.000109,-00.004928,-00.005549*67
"
1712236997.9117615,-078.617,+088.987,-128.505,-00.2230,+00.2586,-00.4528,+09.830,+00.175,+00.121,-00.000563,-00.006156,-00.004102,"$VNYMR,-078.617,+088.987,-128.505,-00.2230,+00.2586,-00.4528,+09.830,+00.175,+00.121,-00.000563,-00.006156,-00.004102*6B
"
1712236997.9366465,-077.847,+088.990,-127.736,-00.2197,+00.2586,-00.4620,+09.811,+00.206,+00.170,-00.001942,-00.008850,-00.001034,"$VNYMR,-077.847,+088.990,-127.736,-00.2197,+00.2586,-00.4620,+09.811,+00.206,+00.170,-00.001942,-00.008850,-00.001034*6F
"
1712236997.961942,-077.329,+088.997,-127.222,-00.2197,+00.2574,-00.4606,+09.813,+00.198,+00.157,-00.001510,-00.010974,+00.002844,"$VNYMR,-077.329,+088.997,-127.222,-00.2197,+00.2574,-00.4606,+09.813,+00.198,+00.157,-00.001510,-00.010974,+00.002844*6E
"
1712236997.9853268,-076.341,+089.014,-126.236,-00.2197,+00.2574,-00.4459,+09.829,+00.173,+00.128,-00.002000,-00.019139,+00.003217,"$VNYMR,-076.341,+089.014,-126.236,-00.2197,+00.2574,-00.4459,+09.829,+00.173,+00.128,-00.002000,-00.019139,+00.003217*68
"
1712236998.0136929,-075.312,+089.033,-125.209,-00.2199,+00.2515,-00.4632,+09.801,+00.139,+00.127,-00.002574,-00.020160,+00.002820,"$VNYMR,-075.312,+089.033,-125.209,-00.2199,+00.2515,-00.4632,+09.801,+00.139,+00.127,-00.002574,-00.020160,+00.002820*65
"
1712236998.0355527,-073.888,+089.054,-123.788,-00.2210,+00.2515,-00.4526,+09.807,+00.073,+00.071,-00.001320,-00.020778,+00.000260,"$VNYMR,-073.888,+089.054,-123.788,-00.2210,+00.2515,-00.4526,+09.807,+00.073,+00.071,-00.001320,-00.020778,+00.000260*68
"
1712236998.0637133,-072.329,+089.068,-122.232,-00.2218,+00.2633,-00.4501,+09.747,+00.105,+00.087,-00.000861,-00.018308,-00.004682,"$VNYMR,-072.329,+089.068,-122.232,-00.2218,+00.2633,-00.4501,+09.747,+00.105,+00.087,-00.000861,-00.018308,-00.004682*66
"
1712236998.0864491,-070.609,+089.074,-120.516,-00.2173,+00.2668,-00.4633,+09.758,+00.096,+00.033,-00.002271,-00.014430,-00.010063,"$VNYMR,-070.609,+089.074,-120.516,-00.2173,+00.2668,-00.4633,+09.758,+00.096,+00.033,-00.002271,-00.014430,-00.010063*60
"
1712236998.1136646,-069.070,+089.069,-118.982,-00.2177,+00.2503,-00.4591,+09.792,+00.141,+00.018,-00.003428,-00.010538,-00.011742,"$VNYMR,-069.070,+089.069,-118.982,-00.2177,+00.2503,-00.4591,+09.792,+00.141,+00.018,-00.003428,-00.010538,-00.011742*60
"
1712236998.13841,-067.847,+089.059,-117.764,-00.2221,+00.2480,-00.4513,+09.775,+00.210,+00.053,-00.003355,-00.006003,-00.012070,"$VNYMR,-067.847,+089.059,-117.764,-00.2221,+00.2480,-00.4513,+09.775,+00.210,+00.053,-00.003355,-00.006003,-00.012070*6B
"
1712236998.1650727,-066.621,+089.050,-116.543,-00.2198,+00.2562,-00.4593,+09.795,+00.216,+00.080,-00.004775,-00.005272,-00.009609,"$VNYMR,-066.621,+089.050,-116.543,-00.2198,+00.2562,-00.4593,+09.795,+00.216,+00.080,-00.004775,-00.005272,-00.009609*6D
"
1712236998.1883726,-066.076,+089.041,-116.006,-00.2198,+00.2539,-00.4499,+09.805,+00.232,+00.089,-00.005950,-00.005597,-00.004661,"$VNYMR,-066.076,+089.041,-116.006,-00.2198,+00.2539,-00.4499,+09.805,+00.232,+00.089,-00.005950,-00.005597,-00.004661*66
"
1712236998.212187,-065.583,+089.040,-115.521,-00.2218,+00.2633,-00.4541,+09.851,+00.211,+00.136,-00.004867,-00.005714,-00.000685,"$VNYMR,-065.583,+089.040,-115.521,-00.2218,+00.2633,-00.4541,+09.851,+00.211,+00.136,-00.004867,-00.005714,-00.000685*68
"
1712236998.236573,-065.177,+089.042,-115.123,-00.2209,+00.2562,-00.4580,+09.807,+00.152,+00.113,-00.006261,-00.009257,+00.001014,"$VNYMR,-065.177,+089.042,-115.123,-00.2209,+00.2562,-00.4580,+09.807,+00.152,+00.113,-00.006261,-00.009257,+00.001014*60
"
1712236998.2611206,-064.597,+089.046,-114.552,-00.2209,+00.2551,-00.4593,+09.818,+00.130,+00.124,-00.005442,-00.011754,-00.001671,"$VNYMR,-064.597,+089.046,-114.552,-00.2209,+00.2551,-00.4593,+09.818,+00.130,+00.124,-00.005442,-00.011754,-00.001671*68
"
1712236998.2889082,-063.711,+089.049,-113.674,-00.2231,+00.2563,-00.4474,+09.791,+00.090,+00.097,-00.004897,-00.012844,-00.006245,"$VNYMR,-063.711,+089.049,-113.674,-00.2231,+00.2563,-00.4474,+09.791,+00.090,+00.097,-00.004897,-00.012844,-00.006245*6E
"
1712236998.311561,-062.383,+089.046,-112.354,-00.2208,+00.2598,-00.4594,+09.781,+00.080,+00.106,-00.004355,-00.013957,-00.013164,"$VNYMR,-062.383,+089.046,-112.354,-00.2208,+00.2598,-00.4594,+09.781,+00.080,+00.106,-00.004355,-00.013957,-00.013164*62
"
1712236998.3363237,-060.990,+089.034,-110.966,-00.2231,+00.2539,-00.4514,+09.806,+00.124,+00.093,-00.002908,-00.011901,-00.016497,"$VNYMR,-060.990,+089.034,-110.966,-00.2231,+00.2539,-00.4514,+09.806,+00.124,+00.093,-00.002908,-00.011901,-00.016497*66
"
1712236998.3636677,-059.847,+089.015,-109.829,-00.2241,+00.2634,-00.4529,+09.800,+00.174,+00.082,-00.003755,-00.010556,-00.017410,"$VNYMR,-059.847,+089.015,-109.829,-00.2241,+00.2634,-00.4529,+09.800,+00.174,+00.082,-00.003755,-00.010556,-00.017410*64
"
1712236998.3860376,-058.906,+088.992,-108.896,-00.2197,+00.2574,-00.4580,+09.789,+00.213,+00.070,-00.004391,-00.007279,-00.017701,"$VNYMR,-058.906,+088.992,-108.896,-00.2197,+00.2574,-00.4580,+09.789,+00.213,+00.070,-00.004391,-00.007279,-00.017701*6A
"
1712236998.4133022,-057.894,+088.973,-107.892,-00.2187,+00.2526,-00.4552,+09.807,+00.236,+00.082,-00.006335,-00.004285,-00.011504,"$VNYMR,-057.894,+088.973,-107.892,-00.2187,+00.2526,-00.4552,+09.807,+00.236,+00.082,-00.006335,-00.004285,-00.011504*6C
"
1712236998.4373438,-057.434,+088.958,-107.441,-00.2265,+00.2504,-00.4449,+09.802,+00.236,+00.089,-00.005611,-00.002732,-00.007144,"$VNYMR,-057.434,+088.958,-107.441,-00.2265,+00.2504,-00.4449,+09.802,+00.236,+00.089,-00.005611,-00.002732,-00.007144*63
"
1712236998.461064,-057.293,+088.949,-107.310,-00.2233,+00.2468,-00.4580,+09.789,+00.204,+00.095,-00.006443,+00.002926,-00.002492,"$VNYMR,-057.293,+088.949,-107.310,-00.2233,+00.2468,-00.4580,+09.789,+00.204,+00.095,-00.006443,+00.002926,-00.002492*67
"
1712236998.4862192,-057.401,+088.947,-107.425,-00.2232,+00.2515,-00.4487,+09.792,+00.159,+00.092,-00.006330,-00.000476,-00.001115,"$VNYMR,-057.401,+088.947,-107.425,-00.2232,+00.2515,-00.4487,+09.792,+00.159,+00.092,-00.006330,-00.000476,-00.001115*69
"
1712236998.5137794,-057.486,+088.945,-107.520,-00.2229,+00.2669,-00.4556,+09.808,+00.102,+00.099,-00.006405,+00.001523,-00.003971,"$VNYMR,-057.486,+088.945,-107.520,-00.2229,+00.2669,-00.4556,+09.808,+00.102,+00.099,-00.006405,+00.001523,-00.003971*69
"
1712236998.5389402,-057.785,+088.937,-107.828,-00.2209,+00.2551,-00.4593,+09.800,+00.114,+00.129,-00.006664,+00.001194,-00.008872,"$VNYMR,-057.785,+088.937,-107.828,-00.2209,+00.2551,-00.4593,+09.800,+00.114,+00.129,-00.006664,+00.001194,-00.008872*6B
"
1712236998.5613678,-057.712,+088.921,-107.762,-00.2210,+00.2491,-00.4579,+09.798,+00.116,+00.098,-00.004915,+00.001426,-00.013734,"$VNYMR,-057.712,+088.921,-107.762,-00.2210,+00.2491,-00.4579,+09.798,+00.116,+00.098,-00.004915,+00.001426,-00.013734*65
"
1712236998.588557,-057.409,+088.899,-107.466,-00.2233,+00.2456,-00.4473,+09.802,+00.147,+00.121,-00.004370,-00.001098,-00.017930,"$VNYMR,-057.409,+088.899,-107.466,-00.2233,+00.2456,-00.4473,+09.802,+00.147,+00.121,-00.004370,-00.001098,-00.017930*63
"
1712236998.6117444,-057.121,+088.874,-107.182,-00.2208,+00.2586,-00.4567,+09.823,+00.171,+00.112,-00.004181,-00.000795,-00.018061,"$VNYMR,-057.121,+088.874,-107.182,-00.2208,+00.2586,-00.4567,+09.823,+00.171,+00.112,-00.004181,-00.000795,-00.018061*63
"
1712236998.6385865,-056.740,+088.849,-106.806,-00.2231,+00.2575,-00.4568,+09.783,+00.235,+00.105,-00.004392,-00.001109,-00.015934,"$VNYMR,-056.740,+088.849,-106.806,-00.2231,+00.2575,-00.4568,+09.783,+00.235,+00.105,-00.004392,-00.001109,-00.015934*66
"
1712236998.6614778,-056.620,+088.829,-106.690,-00.2242,+00.2575,-00.4542,+09.767,+00.240,+00.094,-00.003576,-00.001940,-00.010913,"$VNYMR,-056.620,+088.829,-106.690,-00.2242,+00.2575,-00.4542,+09.767,+00.240,+00.094,-00.003576,-00.001940,-00.010913*65
"
1712236998.6878457,-056.498,+088.818,-106.573,-00.2220,+00.2574,-00.4567,+09.786,+00.247,+00.066,-00.003244,+00.001719,-00.004235,"$VNYMR,-056.498,+088.818,-106.573,-00.2220,+00.2574,-00.4567,+09.786,+00.247,+00.066,-00.003244,+00.001719,-00.004235*67
"
1712236998.7113147,-056.688,+088.813,-106.769,-00.2198,+00.2562,-00.4566,+09.776,+00.205,+00.043,-00.005014,+00.002328,-00.000670,"$VNYMR,-056.688,+088.813,-106.769,-00.2198,+00.2562,-00.4566,+09.776,+00.205,+00.043,-00.005014,+00.002328,-00.000670*6B
"
1712236998.7392745,-057.066,+088.809,-107.154,-00.2254,+00.2516,-00.4462,+09.764,+00.173,+00.059,-00.004625,+00.008024,-00.001937,"$VNYMR,-057.066,+088.809,-107.154,-00.2254,+00.2516,-00.4462,+09.764,+00.173,+00.059,-00.004625,+00.008024,-00.001937*6C
"
1712236998.7635977,-057.594,+088.805,-107.688,-00.2210,+00.2480,-00.4632,+09.791,+00.131,+00.040,-00.003928,+00.011803,-00.003326,"$VNYMR,-057.594,+088.805,-107.688,-00.2210,+00.2480,-00.4632,+09.791,+00.131,+00.040,-00.003928,+00.011803,-00.003326*6B
"
1712236998.7890465,-058.289,+088.794,-108.389,-00.2252,+00.2610,-00.4516,+09.765,+00.099,+00.047,-00.002630,+00.015236,-00.008521,"$VNYMR,-058.289,+088.794,-108.389,-00.2252,+00.2610,-00.4516,+09.765,+00.099,+00.047,-00.002630,+00.015236,-00.008521*61
"
1712236998.8135765,-059.174,+088.775,-109.278,-00.2230,+00.2622,-00.4488,+09.798,+00.129,+00.080,-00.002073,+00.015621,-00.011318,"$VNYMR,-059.174,+088.775,-109.278,-00.2230,+00.2622,-00.4488,+09.798,+00.129,+00.080,-00.002073,+00.015621,-00.011318*67
"
1712236998.8387644,-059.940,+088.752,-110.048,-00.2197,+00.2574,-00.4593,+09.805,+00.176,+00.138,-00.001179,+00.014321,-00.012566,"$VNYMR,-059.940,+088.752,-110.048,-00.2197,+00.2574,-00.4593,+09.805,+00.176,+00.138,-00.001179,+00.014321,-00.012566*62
"
1712236998.860894,-060.515,+088.729,-110.626,-00.2232,+00.2527,-00.4607,+09.814,+00.204,+00.155,-00.000668,+00.012040,-00.011598,"$VNYMR,-060.515,+088.729,-110.626,-00.2232,+00.2527,-00.4607,+09.814,+00.204,+00.155,-00.000668,+00.012040,-00.011598*69
"
1712236998.885846,-060.909,+088.709,-111.021,-00.2255,+00.2457,-00.4488,+09.820,+00.242,+00.105,-00.002194,+00.009852,-00.007837,"$VNYMR,-060.909,+088.709,-111.021,-00.2255,+00.2457,-00.4488,+09.820,+00.242,+00.105,-00.002194,+00.009852,-00.007837*60
"
1712236998.9109726,-061.247,+088.698,-111.358,-00.2222,+00.2456,-00.4579,+09.828,+00.225,+00.126,-00.001318,+00.006144,-00.002510,"$VNYMR,-061.247,+088.698,-111.358,-00.2222,+00.2456,-00.4579,+09.828,+00.225,+00.126,-00.001318,+00.006144,-00.002510*6B
"
1712236998.9359925,-061.407,+088.696,-111.517,-00.2241,+00.2610,-00.4529,+09.817,+00.196,+00.120,+00.000193,+00.003265,-00.000184,"$VNYMR,-061.407,+088.696,-111.517,-00.2241,+00.2610,-00.4529,+09.817,+00.196,+00.120,+00.000193,+00.003265,-00.000184*63
"
1712236998.9630005,-061.693,+088.699,-111.804,-00.2218,+00.2669,-00.4582,+09.772,+00.200,+00.032,+00.000446,+00.007025,+00.002785,"$VNYMR,-061.693,+088.699,-111.804,-00.2218,+00.2669,-00.4582,+09.772,+00.200,+00.032,+00.000446,+00.007025,+00.002785*61
"
1712236998.9858625,-062.266,+088.700,-112.376,-00.2187,+00.2562,-00.4632,+09.795,+00.125,+00.069,-00.000601,+00.009761,+00.000622,"$VNYMR,-062.266,+088.700,-112.376,-00.2187,+00.2562,-00.4632,+09.795,+00.125,+00.069,-00.000601,+00.009761,+00.000622*66
"
1712236999.01128,-062.964,+088.697,-113.073,-00.2220,+00.2574,-00.4634,+09.750,+00.112,+00.020,-00.000858,+00.015595,-00.001278,"$VNYMR,-062.964,+088.697,-113.073,-00.2220,+00.2574,-00.4634,+09.750,+00.112,+00.020,-00.000858,+00.015595,-00.001278*62
"
1712236999.036316,-063.746,+088.687,-113.856,-00.2244,+00.2468,-00.4487,+09.775,+00.109,+00.032,+00.000141,+00.017747,-00.003964,"$VNYMR,-063.746,+088.687,-113.856,-00.2244,+00.2468,-00.4487,+09.775,+00.109,+00.032,+00.000141,+00.017747,-00.003964*65
"
1712236999.063233,-064.837,+088.669,-114.946,-00.2244,+00.2457,-00.4621,+09.796,+00.175,+00.111,+00.001508,+00.021288,-00.005646,"$VNYMR,-064.837,+088.669,-114.946,-00.2244,+00.2457,-00.4621,+09.796,+00.175,+00.111,+00.001508,+00.021288,-00.005646*6A
"
1712236999.0890982,-065.914,+088.648,-116.022,-00.2211,+00.2456,-00.4525,+09.814,+00.180,+00.116,+00.000184,+00.020751,-00.005286,"$VNYMR,-065.914,+088.648,-116.022,-00.2211,+00.2456,-00.4525,+09.814,+00.180,+00.116,+00.000184,+00.020751,-00.005286*66
"
1712236999.1130342,-067.025,+088.630,-117.130,-00.2241,+00.2610,-00.4529,+09.842,+00.241,+00.121,+00.001383,+00.017555,-00.001090,"$VNYMR,-067.025,+088.630,-117.130,-00.2241,+00.2610,-00.4529,+09.842,+00.241,+00.121,+00.001383,+00.017555,-00.001090*64
"
1712236999.1362517,-067.933,+088.619,-118.033,-00.2231,+00.2563,-00.4661,+09.832,+00.235,+00.152,+00.001843,+00.016181,+00.003363,"$VNYMR,-067.933,+088.619,-118.033,-00.2231,+00.2563,-00.4661,+09.832,+00.235,+00.152,+00.001843,+00.016181,+00.003363*63
"
1712236999.1612813,-068.830,+088.617,-118.927,-00.2210,+00.2480,-00.4552,+09.805,+00.209,+00.163,+00.003346,+00.011363,+00.006706,"$VNYMR,-068.830,+088.617,-118.927,-00.2210,+00.2480,-00.4552,+09.805,+00.209,+00.163,+00.003346,+00.011363,+00.006706*6E
"
1712236999.1859152,-069.756,+088.620,-119.848,-00.2222,+00.2468,-00.4553,+09.829,+00.170,+00.141,+00.003165,+00.007739,+00.009256,"$VNYMR,-069.756,+088.620,-119.848,-00.2222,+00.2468,-00.4553,+09.829,+00.170,+00.141,+00.003165,+00.007739,+00.009256*68
"
1712236999.211054,-070.439,+088.627,-120.526,-00.2231,+00.2539,-00.4594,+09.807,+00.138,+00.113,+00.002635,+00.004280,+00.006516,"$VNYMR,-070.439,+088.627,-120.526,-00.2231,+00.2539,-00.4594,+09.807,+00.138,+00.113,+00.002635,+00.004280,+00.006516*62
"
1712236999.2383678,-070.998,+088.633,-121.079,-00.2231,+00.2551,-00.4528,+09.794,+00.089,+00.096,+00.004272,+00.006620,+00.004067,"$VNYMR,-070.998,+088.633,-121.079,-00.2231,+00.2551,-00.4528,+09.794,+00.089,+00.096,+00.004272,+00.006620,+00.004067*68
"
1712236999.2611675,-071.488,+088.632,-121.563,-00.2219,+00.2610,-00.4501,+09.796,+00.131,+00.072,+00.003920,+00.009202,+00.000293,"$VNYMR,-071.488,+088.632,-121.563,-00.2219,+00.2610,-00.4501,+09.796,+00.131,+00.072,+00.003920,+00.009202,+00.000293*6A
"
1712236999.2856758,-072.085,+088.625,-122.154,-00.2185,+00.2645,-00.4686,+09.805,+00.164,+00.061,+00.004100,+00.012418,-00.001031,"$VNYMR,-072.085,+088.625,-122.154,-00.2185,+00.2645,-00.4686,+09.805,+00.164,+00.061,+00.004100,+00.012418,-00.001031*6F
"
1712236999.3108761,-072.729,+088.614,-122.792,-00.2188,+00.2479,-00.4591,+09.796,+00.194,+00.061,+00.003453,+00.015751,-00.001836,"$VNYMR,-072.729,+088.614,-122.792,-00.2188,+00.2479,-00.4591,+09.796,+00.194,+00.061,+00.003453,+00.015751,-00.001836*6D
"
1712236999.3363452,-073.634,+088.602,-123.690,-00.2211,+00.2456,-00.4472,+09.777,+00.229,+00.088,+00.003906,+00.019383,+00.003091,"$VNYMR,-073.634,+088.602,-123.690,-00.2211,+00.2456,-00.4472,+09.777,+00.229,+00.088,+00.003906,+00.019383,+00.003091*60
"
1712236999.363453,-074.500,+088.598,-124.550,-00.2211,+00.2468,-00.4659,+09.804,+00.270,+00.080,+00.003555,+00.016002,+00.009392,"$VNYMR,-074.500,+088.598,-124.550,-00.2211,+00.2468,-00.4659,+09.804,+00.270,+00.080,+00.003555,+00.016002,+00.009392*67
"
1712236999.3862655,-075.529,+088.599,-125.574,-00.2232,+00.2516,-00.4554,+09.801,+00.208,+00.149,+00.004583,+00.015639,+00.014053,"$VNYMR,-075.529,+088.599,-125.574,-00.2232,+00.2516,-00.4554,+09.801,+00.208,+00.149,+00.004583,+00.015639,+00.014053*61
"
1712236999.4108682,-076.758,+088.604,-126.796,-00.2219,+00.2586,-00.4554,+09.857,+00.193,+00.128,+00.004607,+00.011585,+00.016245,"$VNYMR,-076.758,+088.604,-126.796,-00.2219,+00.2586,-00.4554,+09.857,+00.193,+00.128,+00.004607,+00.011585,+00.016245*61
"
1712236999.4360077,-077.833,+088.615,-127.865,-00.2187,+00.2538,-00.4619,+09.809,+00.153,+00.171,+00.004392,+00.006582,+00.015822,"$VNYMR,-077.833,+088.615,-127.865,-00.2187,+00.2538,-00.4619,+09.809,+00.153,+00.171,+00.004392,+00.006582,+00.015822*60
"
1712236999.4607756,-078.781,+088.624,-128.806,-00.2210,+00.2503,-00.4606,+09.841,+00.119,+00.125,+00.003849,+00.007021,+00.010696,"$VNYMR,-078.781,+088.624,-128.806,-00.2210,+00.2503,-00.4606,+09.841,+00.119,+00.125,+00.003849,+00.007021,+00.010696*6A
"
1712236999.485659,-079.318,+088.634,-129.335,-00.2211,+00.2456,-00.4512,+09.783,+00.098,+00.173,+00.005081,+00.003758,+00.006389,"$VNYMR,-079.318,+088.634,-129.335,-00.2211,+00.2456,-00.4512,+09.783,+00.098,+00.173,+00.005081,+00.003758,+00.006389*63
"
1712236999.5109658,-079.666,+088.639,-129.676,-00.2199,+00.2491,-00.4645,+09.825,+00.102,+00.122,+00.005865,+00.004768,+00.002329,"$VNYMR,-079.666,+088.639,-129.676,-00.2199,+00.2491,-00.4645,+09.825,+00.102,+00.122,+00.005865,+00.004768,+00.002329*64
"
1712236999.5381227,-079.804,+088.641,-129.805,-00.2231,+00.2539,-00.4541,+09.759,+00.179,+00.087,+00.005934,+00.001632,+00.001426,"$VNYMR,-079.804,+088.641,-129.805,-00.2231,+00.2539,-00.4541,+09.759,+00.179,+00.087,+00.005934,+00.001632,+00.001426*6D
"
1712236999.5634608,-079.886,+088.644,-129.880,-00.2219,+00.2610,-00.4648,+09.817,+00.205,+00.068,+00.004977,+00.005316,+00.002829,"$VNYMR,-079.886,+088.644,-129.880,-00.2219,+00.2610,-00.4648,+09.817,+00.205,+00.068,+00.004977,+00.005316,+00.002829*6A
"
1712236999.5859485,-080.211,+088.646,-130.198,-00.2173,+00.2704,-00.4660,+09.762,+00.221,+00.074,+00.004884,+00.003445,+00.007857,"$VNYMR,-080.211,+088.646,-130.198,-00.2173,+00.2704,-00.4660,+09.762,+00.221,+00.074,+00.004884,+00.003445,+00.007857*63
"
1712236999.610596,-080.919,+088.650,-130.900,-00.2176,+00.2550,-00.4658,+09.810,+00.231,+00.081,+00.004323,+00.005289,+00.013097,"$VNYMR,-080.919,+088.650,-130.900,-00.2176,+00.2550,-00.4658,+09.810,+00.231,+00.081,+00.004323,+00.005289,+00.013097*65
"
1712236999.6383042,-081.682,+088.664,-131.657,-00.2220,+00.2539,-00.4487,+09.789,+00.180,+00.094,+00.003312,+00.005953,+00.016782,"$VNYMR,-081.682,+088.664,-131.657,-00.2220,+00.2539,-00.4487,+09.789,+00.180,+00.094,+00.003312,+00.005953,+00.016782*60
"
1712236999.6609263,-082.632,+088.678,-132.601,-00.2199,+00.2479,-00.4699,+09.814,+00.149,+00.067,+00.003021,+00.006662,+00.018572,"$VNYMR,-082.632,+088.678,-132.601,-00.2199,+00.2479,-00.4699,+09.814,+00.149,+00.067,+00.003021,+00.006662,+00.018572*60
"
1712236999.687442,-083.589,+088.693,-133.554,-00.2199,+00.2503,-00.4552,+09.836,+00.106,+00.135,+00.002111,+00.006867,+00.017131,"$VNYMR,-083.589,+088.693,-133.554,-00.2199,+00.2503,-00.4552,+09.836,+00.106,+00.135,+00.002111,+00.006867,+00.017131*64
"
1712236999.7128975,-084.476,+088.704,-134.435,-00.2197,+00.2586,-00.4566,+09.748,+00.087,+00.135,+00.002676,+00.003244,+00.010869,"$VNYMR,-084.476,+088.704,-134.435,-00.2197,+00.2586,-00.4566,+09.748,+00.087,+00.135,+00.002676,+00.003244,+00.010869*6D
"
1712236999.735625,-084.993,+088.713,-134.947,-00.2186,+00.2597,-00.4633,+09.875,+00.092,+00.152,+00.003898,+00.002043,+00.006800,"$VNYMR,-084.993,+088.713,-134.947,-00.2186,+00.2597,-00.4633,+09.875,+00.092,+00.152,+00.003898,+00.002043,+00.006800*61
"
1712236999.7608075,-085.150,+088.720,-135.097,-00.2198,+00.2527,-00.4632,+09.774,+00.118,+00.142,+00.004665,-00.002766,+00.003253,"$VNYMR,-085.150,+088.720,-135.097,-00.2198,+00.2527,-00.4632,+09.774,+00.118,+00.142,+00.004665,-00.002766,+00.003253*6F
"
1712236999.7859583,-085.074,+088.727,-135.015,-00.2210,+00.2515,-00.4499,+09.866,+00.191,+00.147,+00.004410,-00.002422,+00.002081,"$VNYMR,-085.074,+088.727,-135.015,-00.2210,+00.2515,-00.4499,+09.866,+00.191,+00.147,+00.004410,-00.002422,+00.002081*63
"
1712236999.810575,-084.935,+088.736,-134.868,-00.2177,+00.2491,-00.4604,+09.807,+00.209,+00.115,+00.003619,-00.008574,+00.004205,"$VNYMR,-084.935,+088.736,-134.868,-00.2177,+00.2491,-00.4604,+09.807,+00.209,+00.115,+00.003619,-00.008574,+00.004205*6A
"
1712236999.835482,-084.764,+088.751,-134.692,-00.2176,+00.2526,-00.4565,+09.814,+00.223,+00.126,+00.003333,-00.008771,+00.007918,"$VNYMR,-084.764,+088.751,-134.692,-00.2176,+00.2526,-00.4565,+09.814,+00.223,+00.126,+00.003333,-00.008771,+00.007918*66
"
1712236999.8661964,-084.763,+088.772,-134.686,-00.2173,+00.2668,-00.4553,+09.836,+00.215,+00.081,+00.002618,-00.009321,+00.012855,"$VNYMR,-084.763,+088.772,-134.686,-00.2173,+00.2668,-00.4553,+09.836,+00.215,+00.081,+00.002618,-00.009321,+00.012855*64
"
1712236999.8896863,-084.923,+088.796,-134.843,-00.2197,+00.2609,-00.4647,+09.759,+00.156,+00.113,+00.002017,-00.008068,+00.015242,"$VNYMR,-084.923,+088.796,-134.843,-00.2197,+00.2609,-00.4647,+09.759,+00.156,+00.113,+00.002017,-00.008068,+00.015242*6D
"
1712236999.9132173,-085.208,+088.819,-135.125,-00.2163,+00.2609,-00.4672,+09.872,+00.132,+00.009,+00.001785,-00.006541,+00.012730,"$VNYMR,-085.208,+088.819,-135.125,-00.2163,+00.2609,-00.4672,+09.872,+00.132,+00.009,+00.001785,-00.006541,+00.012730*65
"
1712236999.9352984,-085.600,+088.837,-135.515,-00.2210,+00.2503,-00.4539,+09.712,+00.135,+00.105,+00.001643,-00.003773,+00.011768,"$VNYMR,-085.600,+088.837,-135.515,-00.2210,+00.2503,-00.4539,+09.712,+00.135,+00.105,+00.001643,-00.003773,+00.011768*60
"
1712236999.9605699,-085.975,+088.847,-135.888,-00.2176,+00.2538,-00.4631,+09.858,+00.127,+00.065,+00.001868,-00.002418,+00.007617,"$VNYMR,-085.975,+088.847,-135.888,-00.2176,+00.2538,-00.4631,+09.858,+00.127,+00.065,+00.001868,-00.002418,+00.007617*60
"
1712236999.987454,-086.091,+088.853,-136.003,-00.2208,+00.2598,-00.4554,+09.766,+00.125,+00.148,+00.001187,-00.003142,+00.003080,"$VNYMR,-086.091,+088.853,-136.003,-00.2208,+00.2598,-00.4554,+09.766,+00.125,+00.148,+00.001187,-00.003142,+00.003080*6C
"
1712237000.0105257,-085.921,+088.859,-135.833,-00.2186,+00.2597,-00.4593,+09.826,+00.124,+00.134,+00.001866,-00.003785,+00.001962,"$VNYMR,-085.921,+088.859,-135.833,-00.2186,+00.2597,-00.4593,+09.826,+00.124,+00.134,+00.001866,-00.003785,+00.001962*63
"
1712237000.0378273,-085.401,+088.870,-135.312,-00.2164,+00.2597,-00.4631,+09.810,+00.164,+00.199,+00.001246,-00.008888,+00.000511,"$VNYMR,-085.401,+088.870,-135.312,-00.2164,+00.2597,-00.4631,+09.810,+00.164,+00.199,+00.001246,-00.008888,+00.000511*66
"
1712237000.060444,-084.887,+088.882,-134.796,-00.2154,+00.2526,-00.4617,+09.975,+00.171,+00.154,+00.001386,-00.011023,+00.002160,"$VNYMR,-084.887,+088.882,-134.796,-00.2154,+00.2526,-00.4617,+09.975,+00.171,+00.154,+00.001386,-00.011023,+00.002160*67
"
1712237000.0856702,-084.206,+088.902,-134.113,-00.2210,+00.2503,-00.4499,+09.794,+00.225,+00.203,+00.000526,-00.016327,+00.004946,"$VNYMR,-084.206,+088.902,-134.113,-00.2210,+00.2503,-00.4499,+09.794,+00.225,+00.203,+00.000526,-00.016327,+00.004946*63
"
1712237000.1124358,-083.505,+088.926,-133.411,-00.2177,+00.2491,-00.4631,+09.868,+00.164,+00.077,+00.001665,-00.019287,+00.006460,"$VNYMR,-083.505,+088.926,-133.411,-00.2177,+00.2491,-00.4631,+09.868,+00.164,+00.077,+00.001665,-00.019287,+00.006460*6F
"
1712237000.138041,-082.723,+088.953,-132.630,-00.2209,+00.2527,-00.4593,+09.702,+00.186,+00.077,-00.001168,-00.018626,+00.007375,"$VNYMR,-082.723,+088.953,-132.630,-00.2209,+00.2527,-00.4593,+09.702,+00.186,+00.077,-00.001168,-00.018626,+00.007375*68
"
1712237000.163627,-082.321,+088.973,-132.229,-00.2196,+00.2669,-00.4554,+09.891,+00.110,+00.041,-00.001810,-00.017330,+00.007378,"$VNYMR,-082.321,+088.973,-132.229,-00.2196,+00.2669,-00.4554,+09.891,+00.110,+00.041,-00.001810,-00.017330,+00.007378*6E
"
1712237000.1858158,-081.772,+088.989,-131.681,-00.2186,+00.2574,-00.4606,+09.730,+00.119,+00.066,-00.001132,-00.011778,+00.002626,"$VNYMR,-081.772,+088.989,-131.681,-00.2186,+00.2574,-00.4606,+09.730,+00.119,+00.066,-00.001132,-00.011778,+00.002626*61
"
1712237000.2126613,-081.004,+089.001,-130.916,-00.2154,+00.2514,-00.4643,+09.851,+00.095,-00.005,-00.001310,-00.010630,-00.001810,"$VNYMR,-081.004,+089.001,-130.916,-00.2154,+00.2514,-00.4643,+09.851,+00.095,-00.005,-00.001310,-00.010630,-00.001810*69
"
1712237000.2363691,-080.317,+089.003,-130.231,-00.2175,+00.2574,-00.4565,+09.747,+00.161,+00.114,-00.001342,-00.006185,-00.004551,"$VNYMR,-080.317,+089.003,-130.231,-00.2175,+00.2574,-00.4565,+09.747,+00.161,+00.114,-00.001342,-00.006185,-00.004551*66
"
1712237000.2604325,-079.500,+089.005,-129.416,-00.2143,+00.2502,-00.4603,+09.862,+00.165,+00.102,-00.002788,-00.007939,-00.005547,"$VNYMR,-079.500,+089.005,-129.416,-00.2143,+00.2502,-00.4603,+09.862,+00.165,+00.102,-00.002788,-00.007939,-00.005547*68
"
1712237000.2883368,-078.914,+089.002,-128.834,-00.2199,+00.2515,-00.4525,+09.771,+00.183,+00.154,-00.002648,-00.008840,-00.004208,"$VNYMR,-078.914,+089.002,-128.834,-00.2199,+00.2515,-00.4525,+09.771,+00.183,+00.154,-00.002648,-00.008840,-00.004208*6A
"
1712237000.310411,-078.256,+089.003,-128.180,-00.2196,+00.2633,-00.4513,+09.888,+00.191,+00.119,-00.002045,-00.009660,-00.001841,"$VNYMR,-078.256,+089.003,-128.180,-00.2196,+00.2633,-00.4513,+09.888,+00.191,+00.119,-00.002045,-00.009660,-00.001841*6A
"
1712237000.3357282,-077.338,+089.012,-127.265,-00.2185,+00.2668,-00.4607,+09.801,+00.188,+00.161,-00.001320,-00.012318,+00.000268,"$VNYMR,-077.338,+089.012,-127.265,-00.2185,+00.2668,-00.4607,+09.801,+00.188,+00.161,-00.001320,-00.012318,+00.000268*62
"
1712237000.3606634,-076.254,+089.026,-126.187,-00.2176,+00.2526,-00.4618,+09.809,+00.168,+00.124,-00.003170,-00.018511,+00.001251,"$VNYMR,-076.254,+089.026,-126.187,-00.2176,+00.2526,-00.4618,+09.809,+00.168,+00.124,-00.003170,-00.018511,+00.001251*66
"
1712237000.3851128,-075.038,+089.042,-124.975,-00.2199,+00.2503,-00.4472,+09.813,+00.131,+00.089,-00.003398,-00.019838,+00.000081,"$VNYMR,-075.038,+089.042,-124.975,-00.2199,+00.2503,-00.4472,+09.813,+00.131,+00.089,-00.003398,-00.019838,+00.000081*6C
"
1712237000.4105315,-073.692,+089.055,-123.633,-00.2188,+00.2491,-00.4658,+09.811,+00.121,+00.090,-00.002552,-00.017094,-00.002683,"$VNYMR,-073.692,+089.055,-123.633,-00.2188,+00.2491,-00.4658,+09.811,+00.121,+00.090,-00.002552,-00.017094,-00.002683*6A
"
1712237000.4379456,-072.138,+089.063,-122.084,-00.2210,+00.2515,-00.4566,+09.780,+00.095,+00.060,-00.003035,-00.017057,-00.006126,"$VNYMR,-072.138,+089.063,-122.084,-00.2210,+00.2515,-00.4566,+09.780,+00.095,+00.060,-00.003035,-00.017057,-00.006126*63
"
1712237000.4631507,-070.604,+089.063,-120.554,-00.2184,+00.2716,-00.4607,+09.774,+00.120,+00.092,-00.002845,-00.012564,-00.010468,"$VNYMR,-070.604,+089.063,-120.554,-00.2184,+00.2716,-00.4607,+09.774,+00.120,+00.092,-00.002845,-00.012564,-00.010468*67
"
1712237000.4878576,-069.186,+089.056,-119.141,-00.2175,+00.2585,-00.4605,+09.781,+00.177,+00.044,-00.003692,-00.010268,-00.012484,"$VNYMR,-069.186,+089.056,-119.141,-00.2175,+00.2585,-00.4605,+09.781,+00.177,+00.044,-00.003692,-00.010268,-00.012484*65
"
1712237000.5118172,-068.105,+089.043,-118.067,-00.2175,+00.2609,-00.4605,+09.798,+00.194,+00.075,-00.004892,-00.007422,-00.011699,"$VNYMR,-068.105,+089.043,-118.067,-00.2175,+00.2609,-00.4605,+09.798,+00.194,+00.075,-00.004892,-00.007422,-00.011699*65
"
1712237000.5355763,-067.259,+089.032,-117.227,-00.2198,+00.2539,-00.4526,+09.797,+00.221,+00.086,-00.004392,-00.004526,-00.008671,"$VNYMR,-067.259,+089.032,-117.227,-00.2198,+00.2539,-00.4526,+09.797,+00.221,+00.086,-00.004392,-00.004526,-00.008671*63
"
1712237000.5606039,-066.506,+089.024,-116.480,-00.2177,+00.2467,-00.4591,+09.857,+00.206,+00.105,-00.005309,-00.006243,-00.006917,"$VNYMR,-066.506,+089.024,-116.480,-00.2177,+00.2467,-00.4591,+09.857,+00.206,+00.105,-00.005309,-00.006243,-00.006917*6D
"
1712237000.5883644,-066.000,+089.020,-115.982,-00.2188,+00.2503,-00.4538,+09.792,+00.193,+00.131,-00.005214,-00.003884,-00.002487,"$VNYMR,-066.000,+089.020,-115.982,-00.2188,+00.2503,-00.4538,+09.792,+00.193,+00.131,-00.005214,-00.003884,-00.002487*61
"
1712237000.6130714,-065.515,+089.019,-115.506,-00.2197,+00.2609,-00.4527,+09.853,+00.178,+00.111,-00.005473,-00.007893,-00.002999,"$VNYMR,-065.515,+089.019,-115.506,-00.2197,+00.2609,-00.4527,+09.853,+00.178,+00.111,-00.005473,-00.007893,-00.002999*62
"
1712237000.6363165,-064.835,+089.020,-114.833,-00.2175,+00.2585,-00.4632,+09.791,+00.138,+00.117,-00.005236,-00.007748,-00.004171,"$VNYMR,-064.835,+089.020,-114.833,-00.2175,+00.2585,-00.4632,+09.791,+00.138,+00.117,-00.005236,-00.007748,-00.004171*65
"
1712237000.6631017,-063.987,+089.018,-113.992,-00.2154,+00.2514,-00.4617,+09.868,+00.112,+00.110,-00.004888,-00.009950,-00.008483,"$VNYMR,-063.987,+089.018,-113.992,-00.2154,+00.2514,-00.4617,+09.868,+00.112,+00.110,-00.004888,-00.009950,-00.008483*65
"
1712237000.6882255,-062.942,+089.009,-112.953,-00.2219,+00.2586,-00.4487,+09.806,+00.108,+00.077,-00.003917,-00.010963,-00.013083,"$VNYMR,-062.942,+089.009,-112.953,-00.2219,+00.2586,-00.4487,+09.806,+00.108,+00.077,-00.003917,-00.010963,-00.013083*6E
"
1712237000.7114222,-061.727,+088.995,-111.744,-00.2188,+00.2491,-00.4578,+09.812,+00.143,+00.080,-00.003864,-00.011668,-00.015708,"$VNYMR,-061.727,+088.995,-111.744,-00.2188,+00.2491,-00.4578,+09.812,+00.143,+00.080,-00.003864,-00.011668,-00.015708*6B
"
1712237000.7387106,-060.681,+088.977,-110.703,-00.2176,+00.2526,-00.4551,+09.785,+00.156,+00.028,-00.003673,-00.006426,-00.016285,"$VNYMR,-060.681,+088.977,-110.703,-00.2176,+00.2526,-00.4551,+09.785,+00.156,+00.028,-00.003673,-00.006426,-00.016285*6C
"
1712237000.7615626,-059.688,+088.958,-109.716,-00.2209,+00.2574,-00.4527,+09.786,+00.217,+00.068,-00.003456,-00.006406,-00.015086,"$VNYMR,-059.688,+088.958,-109.716,-00.2209,+00.2574,-00.4527,+09.786,+00.217,+00.068,-00.003456,-00.006406,-00.015086*67
"
1712237000.7862177,-059.156,+088.940,-109.190,-00.2165,+00.2550,-00.4591,+09.799,+00.227,+00.087,-00.004676,-00.001116,-00.010523,"$VNYMR,-059.156,+088.940,-109.190,-00.2165,+00.2550,-00.4591,+09.799,+00.227,+00.087,-00.004676,-00.001116,-00.010523*67
"
1712237000.8132987,-058.912,+088.927,-108.952,-00.2164,+00.2573,-00.4578,+09.759,+00.221,+00.057,-00.004888,-00.001299,-00.005195,"$VNYMR,-058.912,+088.927,-108.952,-00.2164,+00.2573,-00.4578,+09.759,+00.221,+00.057,-00.004888,-00.001299,-00.005195*6E
"
1712237000.8373973,-058.863,+088.919,-108.910,-00.2210,+00.2491,-00.4486,+09.836,+00.190,+00.084,-00.005922,+00.004129,-00.003005,"$VNYMR,-058.863,+088.919,-108.910,-00.2210,+00.2491,-00.4486,+09.836,+00.190,+00.084,-00.005922,+00.004129,-00.003005*6B
"
1712237000.863212,-059.169,+088.912,-109.223,-00.2199,+00.2479,-00.4578,+09.799,+00.158,+00.093,-00.004524,+00.003673,-00.004762,"$VNYMR,-059.169,+088.912,-109.223,-00.2199,+00.2479,-00.4578,+09.799,+00.158,+00.093,-00.004524,+00.003673,-00.004762*61
"
1712237000.8872247,-059.578,+088.904,-109.638,-00.2222,+00.2468,-00.4539,+09.821,+00.129,+00.128,-00.004957,+00.004713,-00.006671,"$VNYMR,-059.578,+088.904,-109.638,-00.2222,+00.2468,-00.4539,+09.821,+00.129,+00.128,-00.004957,+00.004713,-00.006671*68
"
1712237000.9114234,-059.682,+088.895,-109.747,-00.2206,+00.2681,-00.4608,+09.802,+00.116,+00.084,-00.002975,+00.003586,-00.010150,"$VNYMR,-059.682,+088.895,-109.747,-00.2206,+00.2681,-00.4608,+09.802,+00.116,+00.084,-00.002975,+00.003586,-00.010150*6A
"
1712237000.93636,-059.883,+088.877,-109.951,-00.2165,+00.2538,-00.4577,+09.805,+00.119,+00.135,-00.003117,+00.002696,-00.014341,"$VNYMR,-059.883,+088.877,-109.951,-00.2165,+00.2538,-00.4577,+09.805,+00.119,+00.135,-00.003117,+00.002696,-00.014341*67
"
1712237000.9634485,-059.676,+088.857,-109.748,-00.2188,+00.2491,-00.4591,+09.789,+00.163,+00.139,-00.002037,+00.003283,-00.016560,"$VNYMR,-059.676,+088.857,-109.748,-00.2188,+00.2491,-00.4591,+09.789,+00.163,+00.139,-00.002037,+00.003283,-00.016560*60
"
1712237000.9865677,-059.550,+088.834,-109.625,-00.2232,+00.2492,-00.4527,+09.812,+00.171,+00.092,-00.002767,+00.002166,-00.014938,"$VNYMR,-059.550,+088.834,-109.625,-00.2232,+00.2492,-00.4527,+09.812,+00.171,+00.092,-00.002767,+00.002166,-00.014938*62
"
1712237001.0111647,-059.255,+088.816,-109.333,-00.2178,+00.2455,-00.4604,+09.778,+00.239,+00.060,-00.002179,+00.002878,-00.011265,"$VNYMR,-059.255,+088.816,-109.333,-00.2178,+00.2455,-00.4604,+09.778,+00.239,+00.060,-00.002179,+00.002878,-00.011265*6E
"
1712237001.0351672,-059.218,+088.800,-109.299,-00.2221,+00.2492,-00.4473,+09.844,+00.242,+00.077,-00.001752,+00.002709,-00.007688,"$VNYMR,-059.218,+088.800,-109.299,-00.2221,+00.2492,-00.4473,+09.844,+00.242,+00.077,-00.001752,+00.002709,-00.007688*68
"
1712237001.0613325,-059.096,+088.791,-109.180,-00.2197,+00.2609,-00.4567,+09.762,+00.236,+00.064,-00.002372,+00.004421,-00.003572,"$VNYMR,-059.096,+088.791,-109.180,-00.2197,+00.2609,-00.4567,+09.762,+00.236,+00.064,-00.002372,+00.004421,-00.003572*68
"
1712237001.0860257,-059.461,+088.783,-109.548,-00.2199,+00.2515,-00.4552,+09.777,+00.170,+00.078,-00.002686,+00.006404,-00.002454,"$VNYMR,-059.461,+088.783,-109.548,-00.2199,+00.2515,-00.4552,+09.777,+00.170,+00.078,-00.002686,+00.006404,-00.002454*66
"
1712237001.1126688,-059.920,+088.779,-110.011,-00.2188,+00.2467,-00.4604,+09.774,+00.151,+00.085,-00.002690,+00.009278,-00.001224,"$VNYMR,-059.920,+088.779,-110.011,-00.2188,+00.2467,-00.4604,+09.774,+00.151,+00.085,-00.002690,+00.009278,-00.001224*6B
"
1712237001.1351008,-060.645,+088.771,-110.738,-00.2188,+00.2491,-00.4498,+09.804,+00.097,+00.030,-00.002394,+00.014366,-00.003690,"$VNYMR,-060.645,+088.771,-110.738,-00.2188,+00.2491,-00.4498,+09.804,+00.097,+00.030,-00.002394,+00.014366,-00.003690*60
"
1712237001.161001,-061.397,+088.757,-111.491,-00.2178,+00.2432,-00.4577,+09.796,+00.143,+00.089,-00.001713,+00.014586,-00.007921,"$VNYMR,-061.397,+088.757,-111.491,-00.2178,+00.2432,-00.4577,+09.796,+00.143,+00.089,-00.001713,+00.014586,-00.007921*67
"
1712237001.1854684,-062.166,+088.739,-112.262,-00.2209,+00.2551,-00.4526,+09.818,+00.135,+00.083,-00.001464,+00.013951,-00.010153,"$VNYMR,-062.166,+088.739,-112.262,-00.2209,+00.2551,-00.4526,+09.818,+00.135,+00.083,-00.001464,+00.013951,-00.010153*67
"
1712237001.2114503,-062.699,+088.720,-112.796,-00.2164,+00.2573,-00.4524,+09.820,+00.174,+00.130,-00.001560,+00.010006,-00.010566,"$VNYMR,-062.699,+088.720,-112.796,-00.2164,+00.2573,-00.4524,+09.820,+00.174,+00.130,-00.001560,+00.010006,-00.010566*64
"
1712237001.2358932,-063.364,+088.699,-113.460,-00.2197,+00.2586,-00.4646,+09.837,+00.214,+00.128,-00.001101,+00.012704,-00.007695,"$VNYMR,-063.364,+088.699,-113.460,-00.2197,+00.2586,-00.4646,+09.837,+00.214,+00.128,-00.001101,+00.012704,-00.007695*6C
"
1712237001.2611496,-063.762,+088.686,-113.856,-00.2198,+00.2527,-00.4592,+09.855,+00.230,+00.137,+00.000885,+00.007277,-00.004658,"$VNYMR,-063.762,+088.686,-113.856,-00.2198,+00.2527,-00.4592,+09.855,+00.230,+00.137,+00.000885,+00.007277,-00.004658*6E
"
1712237001.2860858,-064.132,+088.677,-114.224,-00.2199,+00.2503,-00.4499,+09.821,+00.221,+00.098,+00.000469,+00.006288,-00.000399,"$VNYMR,-064.132,+088.677,-114.224,-00.2199,+00.2503,-00.4499,+09.821,+00.221,+00.098,+00.000469,+00.006288,-00.000399*65
"
1712237001.3112476,-064.558,+088.676,-114.648,-00.2175,+00.2562,-00.4618,+09.784,+00.194,+00.076,+00.000530,+00.006879,+00.002244,"$VNYMR,-064.558,+088.676,-114.648,-00.2175,+00.2562,-00.4618,+09.784,+00.194,+00.076,+00.000530,+00.006879,+00.002244*6D
"
1712237001.3386889,-065.033,+088.676,-115.121,-00.2209,+00.2527,-00.4540,+09.769,+00.154,+00.075,+00.001764,+00.009188,+00.001380,"$VNYMR,-065.033,+088.676,-115.121,-00.2209,+00.2527,-00.4540,+09.769,+00.154,+00.075,+00.001764,+00.009188,+00.001380*66
"
1712237001.360977,-065.609,+088.676,-115.696,-00.2206,+00.2692,-00.4555,+09.767,+00.120,+00.057,+00.001115,+00.011045,+00.001458,"$VNYMR,-065.609,+088.676,-115.696,-00.2206,+00.2692,-00.4555,+09.767,+00.120,+00.057,+00.001115,+00.011045,+00.001458*62
"
1712237001.3888323,-066.481,+088.669,-116.565,-00.2185,+00.2621,-00.4579,+09.812,+00.131,+00.061,+00.000741,+00.014791,-00.001185,"$VNYMR,-066.481,+088.669,-116.565,-00.2185,+00.2621,-00.4579,+09.812,+00.131,+00.061,+00.000741,+00.014791,-00.001185*69
"
1712237001.4131746,-067.446,+088.655,-117.527,-00.2177,+00.2467,-00.4604,+09.777,+00.165,+00.095,+00.001341,+00.017523,-00.003882,"$VNYMR,-067.446,+088.655,-117.527,-00.2177,+00.2467,-00.4604,+09.777,+00.165,+00.095,+00.001341,+00.017523,-00.003882*68
"
1712237001.4375975,-068.441,+088.639,-118.520,-00.2200,+00.2468,-00.4472,+09.811,+00.183,+00.080,+00.001808,+00.020904,-00.002742,"$VNYMR,-068.441,+088.639,-118.520,-00.2200,+00.2468,-00.4472,+09.811,+00.183,+00.080,+00.001808,+00.020904,-00.002742*67
"
1712237001.4609358,-069.550,+088.622,-119.623,-00.2189,+00.2456,-00.4631,+09.783,+00.228,+00.121,+00.002104,+00.020606,-00.001067,"$VNYMR,-069.550,+088.622,-119.623,-00.2189,+00.2456,-00.4631,+09.783,+00.228,+00.121,+00.002104,+00.020606,-00.001067*62
"
1712237001.4858742,-070.321,+088.612,-120.391,-00.2221,+00.2515,-00.4527,+09.845,+00.202,+00.121,+00.002133,+00.016053,+00.000642,"$VNYMR,-070.321,+088.612,-120.391,-00.2221,+00.2515,-00.4527,+09.845,+00.202,+00.121,+00.002133,+00.016053,+00.000642*60
"
1712237001.5129018,-071.230,+088.606,-121.295,-00.2219,+00.2586,-00.4541,+09.836,+00.226,+00.143,+00.002336,+00.013349,+00.004918,"$VNYMR,-071.230,+088.606,-121.295,-00.2219,+00.2586,-00.4541,+09.836,+00.226,+00.143,+00.002336,+00.013349,+00.004918*68
"
1712237001.536041,-072.035,+088.607,-122.095,-00.2198,+00.2550,-00.4686,+09.834,+00.191,+00.127,+00.003604,+00.008167,+00.009140,"$VNYMR,-072.035,+088.607,-122.095,-00.2198,+00.2550,-00.4686,+09.834,+00.191,+00.127,+00.003604,+00.008167,+00.009140*63
"
1712237001.5609376,-072.810,+088.613,-122.864,-00.2166,+00.2479,-00.4630,+09.803,+00.145,+00.102,+00.003736,+00.008528,+00.009289,"$VNYMR,-072.810,+088.613,-122.864,-00.2166,+00.2479,-00.4630,+09.803,+00.145,+00.102,+00.003736,+00.008528,+00.009289*6A
"
1712237001.5871885,-073.407,+088.620,-123.456,-00.2211,+00.2444,-00.4512,+09.818,+00.145,+00.107,+00.003939,+00.004877,+00.008509,"$VNYMR,-073.407,+088.620,-123.456,-00.2211,+00.2444,-00.4512,+09.818,+00.145,+00.107,+00.003939,+00.004877,+00.008509*68
"
1712237001.6110265,-074.048,+088.623,-124.092,-00.2188,+00.2467,-00.4604,+09.795,+00.105,+00.069,+00.003467,+00.006420,+00.005174,"$VNYMR,-074.048,+088.623,-124.092,-00.2188,+00.2467,-00.4604,+09.795,+00.105,+00.069,+00.003467,+00.006420,+00.005174*60
"
1712237001.6363468,-074.576,+088.622,-124.612,-00.2208,+00.2598,-00.4594,+09.812,+00.150,+00.098,+00.005503,+00.010970,+00.001565,"$VNYMR,-074.576,+088.622,-124.612,-00.2208,+00.2598,-00.4594,+09.812,+00.150,+00.098,+00.005503,+00.010970,+00.001565*63
"
1712237001.660878,-075.159,+088.617,-125.189,-00.2186,+00.2597,-00.4553,+09.760,+00.139,+00.073,+00.002964,+00.011333,+00.002417,"$VNYMR,-075.159,+088.617,-125.189,-00.2186,+00.2597,-00.4553,+09.760,+00.139,+00.073,+00.002964,+00.011333,+00.002417*69
"
1712237001.6857083,-075.837,+088.611,-125.861,-00.2218,+00.2645,-00.4635,+09.807,+00.199,+00.065,+00.003892,+00.015498,+00.003105,"$VNYMR,-075.837,+088.611,-125.861,-00.2218,+00.2645,-00.4635,+09.807,+00.199,+00.065,+00.003892,+00.015498,+00.003105*65
"
1712237001.710955,-076.638,+088.607,-126.656,-00.2210,+00.2491,-00.4633,+09.781,+00.215,+00.073,+00.004363,+00.014219,+00.008407,"$VNYMR,-076.638,+088.607,-126.656,-00.2210,+00.2491,-00.4633,+09.781,+00.215,+00.073,+00.004363,+00.014219,+00.008407*6D
"
1712237001.7360327,-077.639,+088.604,-127.652,-00.2210,+00.2480,-00.4512,+09.809,+00.227,+00.079,+00.002646,+00.013108,+00.011317,"$VNYMR,-077.639,+088.604,-127.652,-00.2210,+00.2480,-00.4512,+09.809,+00.227,+00.079,+00.002646,+00.013108,+00.011317*61
"
1712237001.7611244,-078.713,+088.608,-128.721,-00.2166,+00.2479,-00.4617,+09.866,+00.204,+00.128,+00.003202,+00.010340,+00.014715,"$VNYMR,-078.713,+088.608,-128.721,-00.2166,+00.2479,-00.4617,+09.866,+00.204,+00.128,+00.003202,+00.010340,+00.014715*65
"
1712237001.7886682,-079.814,+088.614,-129.817,-00.2244,+00.2480,-00.4541,+09.831,+00.180,+00.161,+00.004151,+00.009471,+00.015620,"$VNYMR,-079.814,+088.614,-129.817,-00.2244,+00.2480,-00.4541,+09.831,+00.180,+00.161,+00.004151,+00.009471,+00.015620*66
"
1712237001.8109868,-080.726,+088.626,-130.724,-00.2207,+00.2669,-00.4581,+09.832,+00.133,+00.155,+00.003592,+00.006851,+00.013838,"$VNYMR,-080.726,+088.626,-130.724,-00.2207,+00.2669,-00.4581,+09.832,+00.133,+00.155,+00.003592,+00.006851,+00.013838*66
"
1712237001.8383756,-081.571,+088.634,-131.561,-00.2198,+00.2562,-00.4619,+09.844,+00.137,+00.140,+00.004306,+00.005620,+00.010815,"$VNYMR,-081.571,+088.634,-131.561,-00.2198,+00.2562,-00.4619,+09.844,+00.137,+00.140,+00.004306,+00.005620,+00.010815*63
"
1712237001.861181,-082.127,+088.643,-132.110,-00.2188,+00.2479,-00.4658,+09.849,+00.130,+00.118,+00.004011,+00.001109,+00.007122,"$VNYMR,-082.127,+088.643,-132.110,-00.2188,+00.2479,-00.4658,+09.849,+00.130,+00.118,+00.004011,+00.001109,+00.007122*68
"
1712237001.8856843,-082.429,+088.649,-132.405,-00.2199,+00.2479,-00.4538,+09.806,+00.167,+00.139,+00.003619,+00.003279,+00.003296,"$VNYMR,-082.429,+088.649,-132.405,-00.2199,+00.2479,-00.4538,+09.806,+00.167,+00.139,+00.003619,+00.003279,+00.003296*60
"
1712237001.9110239,-082.617,+088.655,-132.586,-00.2165,+00.2538,-00.4617,+09.803,+00.175,+00.057,+00.004191,+00.003269,+00.004927,"$VNYMR,-082.617,+088.655,-132.586,-00.2165,+00.2538,-00.4617,+09.803,+00.175,+00.057,+00.004191,+00.003269,+00.004927*69
"
1712237001.936342,-082.736,+088.661,-132.699,-00.2186,+00.2597,-00.4619,+09.825,+00.192,+00.098,+00.003388,+00.002118,+00.006441,"$VNYMR,-082.736,+088.661,-132.699,-00.2186,+00.2597,-00.4619,+09.825,+00.192,+00.098,+00.003388,+00.002118,+00.006441*6F
"
1712237001.9616275,-083.048,+088.669,-133.006,-00.2187,+00.2562,-00.4606,+09.779,+00.231,+00.067,+00.003325,+00.002247,+00.011049,"$VNYMR,-083.048,+088.669,-133.006,-00.2187,+00.2562,-00.4606,+09.779,+00.231,+00.067,+00.003325,+00.002247,+00.011049*64
"
1712237001.9882078,-083.598,+088.680,-133.551,-00.2175,+00.2597,-00.4605,+09.833,+00.220,+00.110,+00.002788,+00.002876,+00.014281,"$VNYMR,-083.598,+088.680,-133.551,-00.2175,+00.2597,-00.4605,+09.833,+00.220,+00.110,+00.002788,+00.002876,+00.014281*61
"
1712237002.011305,-084.307,+088.695,-134.255,-00.2156,+00.2443,-00.4629,+09.830,+00.188,+00.050,+00.001936,+00.003121,+00.015652,"$VNYMR,-084.307,+088.695,-134.255,-00.2156,+00.2443,-00.4629,+09.830,+00.188,+00.050,+00.001936,+00.003121,+00.015652*6F
"
1712237002.0359645,-085.038,+088.713,-134.984,-00.2210,+00.2480,-00.4552,+09.823,+00.132,+00.088,+00.001421,+00.001209,+00.017178,"$VNYMR,-085.038,+088.713,-134.984,-00.2210,+00.2480,-00.4552,+09.823,+00.132,+00.088,+00.001421,+00.001209,+00.017178*63
"
1712237002.0611706,-085.827,+088.727,-135.771,-00.2177,+00.2491,-00.4591,+09.791,+00.124,+00.135,+00.001841,+00.002658,+00.013733,"$VNYMR,-085.827,+088.727,-135.771,-00.2177,+00.2491,-00.4591,+09.791,+00.124,+00.135,+00.001841,+00.002658,+00.013733*68
"
1712237002.0885816,-086.458,+088.739,-136.400,-00.2165,+00.2514,-00.4590,+09.830,+00.127,+00.140,+00.001150,+00.000988,+00.011046,"$VNYMR,-086.458,+088.739,-136.400,-00.2165,+00.2514,-00.4590,+09.830,+00.127,+00.140,+00.001150,+00.000988,+00.011046*63
"
1712237002.1110282,-086.922,+088.746,-136.859,-00.2175,+00.2597,-00.4539,+09.834,+00.122,+00.137,+00.001714,-00.002986,+00.005312,"$VNYMR,-086.922,+088.746,-136.859,-00.2175,+00.2597,-00.4539,+09.834,+00.122,+00.137,+00.001714,-00.002986,+00.005312*68
"
1712237002.1359153,-087.031,+088.755,-136.965,-00.2153,+00.2573,-00.4644,+09.847,+00.148,+00.122,+00.002461,-00.003754,+00.003695,"$VNYMR,-087.031,+088.755,-136.965,-00.2153,+00.2573,-00.4644,+09.847,+00.148,+00.122,+00.002461,-00.003754,+00.003695*6B
"
1712237002.1634567,-086.863,+088.765,-136.794,-00.2176,+00.2514,-00.4631,+09.832,+00.168,+00.156,+00.001001,-00.007838,+00.004087,"$VNYMR,-086.863,+088.765,-136.794,-00.2176,+00.2514,-00.4631,+09.832,+00.168,+00.156,+00.001001,-00.007838,+00.004087*63
"
1712237002.187971,-086.648,+088.776,-136.574,-00.2198,+00.2527,-00.4592,+09.819,+00.208,+00.131,+00.002220,-00.008632,+00.005499,"$VNYMR,-086.648,+088.776,-136.574,-00.2198,+00.2527,-00.4592,+09.819,+00.208,+00.131,+00.002220,-00.008632,+00.005499*6E
"
1712237002.2111645,-086.459,+088.792,-136.382,-00.2177,+00.2491,-00.4698,+09.802,+00.191,+00.153,+00.001888,-00.010500,+00.009198,"$VNYMR,-086.459,+088.792,-136.382,-00.2177,+00.2491,-00.4698,+09.802,+00.191,+00.153,+00.001888,-00.010500,+00.009198*68
"
1712237002.2357452,-086.298,+088.813,-136.218,-00.2199,+00.2491,-00.4539,+09.782,+00.167,+00.095,+00.001555,-00.009566,+00.010892,"$VNYMR,-086.298,+088.813,-136.218,-00.2199,+00.2491,-00.4539,+09.782,+00.167,+00.095,+00.001555,-00.009566,+00.010892*64
"
1712237002.2637978,-086.194,+088.840,-136.111,-00.2162,+00.2668,-00.4632,+09.784,+00.164,+00.056,+00.001078,-00.009521,+00.012689,"$VNYMR,-086.194,+088.840,-136.111,-00.2162,+00.2668,-00.4632,+09.784,+00.164,+00.056,+00.001078,-00.009521,+00.012689*6A
"
1712237002.288314,-086.378,+088.860,-136.294,-00.2186,+00.2597,-00.4686,+09.813,+00.134,+00.065,+00.000260,-00.007561,+00.011399,"$VNYMR,-086.378,+088.860,-136.294,-00.2186,+00.2597,-00.4686,+09.813,+00.134,+00.065,+00.000260,-00.007561,+00.011399*63
"
1712237002.3111153,-086.557,+088.876,-136.474,-00.2176,+00.2514,-00.4618,+09.793,+00.096,+00.112,+00.000243,-00.006592,+00.008675,"$VNYMR,-086.557,+088.876,-136.474,-00.2176,+00.2514,-00.4618,+09.793,+00.096,+00.112,+00.000243,-00.006592,+00.008675*68
"
1712237002.3363025,-086.639,+088.890,-136.556,-00.2186,+00.2609,-00.4499,+09.796,+00.111,+00.075,-00.000777,-00.005660,+00.005041,"$VNYMR,-086.639,+088.890,-136.556,-00.2186,+00.2609,-00.4499,+09.796,+00.111,+00.075,-00.000777,-00.005660,+00.005041*6F
"
1712237002.3609583,-086.615,+088.895,-136.533,-00.2132,+00.2537,-00.4682,+09.834,+00.145,+00.154,+00.000139,-00.003531,+00.001817,"$VNYMR,-086.615,+088.895,-136.533,-00.2132,+00.2537,-00.4682,+09.834,+00.145,+00.154,+00.000139,-00.003531,+00.001817*6E
"
1712237002.388803,-086.388,+088.900,-136.306,-00.2165,+00.2550,-00.4551,+09.831,+00.155,+00.113,-00.000633,-00.009312,+00.000454,"$VNYMR,-086.388,+088.900,-136.306,-00.2165,+00.2550,-00.4551,+09.831,+00.155,+00.113,-00.000633,-00.009312,+00.000454*67
"
1712237002.4110558,-085.838,+088.908,-135.756,-00.2163,+00.2621,-00.4565,+09.838,+00.192,+00.155,-00.000476,-00.009739,+00.000809,"$VNYMR,-085.838,+088.908,-135.756,-00.2163,+00.2621,-00.4565,+09.838,+00.192,+00.155,-00.000476,-00.009739,+00.000809*60
"
1712237002.4381025,-085.151,+088.920,-135.070,-00.2185,+00.2645,-00.4620,+09.835,+00.195,+00.175,-00.000959,-00.015274,+00.002009,"$VNYMR,-085.151,+088.920,-135.070,-00.2185,+00.2645,-00.4620,+09.835,+00.195,+00.175,-00.000959,-00.015274,+00.002009*64
"
1712237002.4606714,-084.413,+088.937,-134.334,-00.2166,+00.2479,-00.4657,+09.797,+00.187,+00.129,-00.000105,-00.015438,+00.004593,"$VNYMR,-084.413,+088.937,-134.334,-00.2166,+00.2479,-00.4657,+09.797,+00.187,+00.129,-00.000105,-00.015438,+00.004593*60
"
1712237002.4884067,-083.473,+088.962,-133.394,-00.2166,+00.2479,-00.4457,+09.831,+00.191,+00.119,-00.000581,-00.019766,+00.005588,"$VNYMR,-083.473,+088.962,-133.394,-00.2166,+00.2479,-00.4457,+09.831,+00.191,+00.119,-00.000581,-00.019766,+00.005588*6E
"
1712237002.510673,-082.509,+088.985,-132.432,-00.2176,+00.2538,-00.4631,+09.788,+00.156,+00.085,-00.001406,-00.018360,+00.003464,"$VNYMR,-082.509,+088.985,-132.432,-00.2176,+00.2538,-00.4631,+09.788,+00.156,+00.085,-00.001406,-00.018360,+00.003464*6C
"
1712237002.5380952,-081.645,+089.005,-131.569,-00.2176,+00.2538,-00.4538,+09.779,+00.116,+00.076,-00.001588,-00.017057,+00.001290,"$VNYMR,-081.645,+089.005,-131.569,-00.2176,+00.2538,-00.4538,+09.779,+00.116,+00.076,-00.001588,-00.017057,+00.001290*64
"
1712237002.562449,-080.793,+089.018,-130.719,-00.2195,+00.2716,-00.4594,+09.775,+00.123,+00.024,-00.001418,-00.013001,-00.001022,"$VNYMR,-080.793,+089.018,-130.719,-00.2195,+00.2716,-00.4594,+09.775,+00.123,+00.024,-00.001418,-00.013001,-00.001022*6D
"
1712237002.5854359,-079.797,+089.028,-129.725,-00.2164,+00.2585,-00.4605,+09.781,+00.115,+00.059,-00.001552,-00.008366,-00.003812,"$VNYMR,-079.797,+089.028,-129.725,-00.2164,+00.2585,-00.4605,+09.781,+00.115,+00.059,-00.001552,-00.008366,-00.003812*6C
"
1712237002.6106367,-078.909,+089.030,-128.841,-00.2166,+00.2502,-00.4604,+09.788,+00.147,+00.075,-00.002409,-00.008083,-00.006768,"$VNYMR,-078.909,+089.030,-128.841,-00.2166,+00.2502,-00.4604,+09.788,+00.147,+00.075,-00.002409,-00.008083,-00.006768*6E
"
1712237002.6379695,-078.174,+089.026,-128.110,-00.2175,+00.2585,-00.4552,+09.848,+00.172,+00.100,-00.003024,-00.008452,-00.006049,"$VNYMR,-078.174,+089.026,-128.110,-00.2175,+00.2585,-00.4552,+09.848,+00.172,+00.100,-00.003024,-00.008452,-00.006049*6B
"
1712237002.6604514,-077.258,+089.025,-127.197,-00.2155,+00.2490,-00.4590,+09.854,+00.182,+00.101,-00.002985,-00.010491,-00.003838,"$VNYMR,-077.258,+089.025,-127.197,-00.2155,+00.2490,-00.4590,+09.854,+00.182,+00.101,-00.002985,-00.010491,-00.003838*6E
"
1712237002.685753,-076.303,+089.026,-126.247,-00.2198,+00.2527,-00.4552,+09.836,+00.177,+00.142,-00.003169,-00.010936,-00.002723,"$VNYMR,-076.303,+089.026,-126.247,-00.2198,+00.2527,-00.4552,+09.836,+00.177,+00.142,-00.003169,-00.010936,-00.002723*68
"
1712237002.7122853,-075.497,+089.031,-125.446,-00.2184,+00.2680,-00.4540,+09.796,+00.167,+00.139,-00.003280,-00.014877,-00.000570,"$VNYMR,-075.497,+089.031,-125.446,-00.2184,+00.2680,-00.4540,+09.796,+00.167,+00.139,-00.003280,-00.014877,-00.000570*69
"
1712237002.7357721,-074.552,+089.040,-124.505,-00.2142,+00.2585,-00.4603,+09.814,+00.184,+00.112,-00.002796,-00.017449,+00.000070,"$VNYMR,-074.552,+089.040,-124.505,-00.2142,+00.2585,-00.4603,+09.814,+00.184,+00.112,-00.002796,-00.017449,+00.000070*6A
"
1712237002.7618885,-073.243,+089.050,-123.200,-00.2164,+00.2585,-00.4618,+09.768,+00.114,+00.106,-00.002761,-00.018559,-00.002819,"$VNYMR,-073.243,+089.050,-123.200,-00.2164,+00.2585,-00.4618,+09.768,+00.114,+00.106,-00.002761,-00.018559,-00.002819*6C
"
1712237002.7884521,-071.775,+089.057,-121.738,-00.2166,+00.2502,-00.4497,+09.837,+00.099,+00.053,-00.003098,-00.015586,-00.006442,"$VNYMR,-071.775,+089.057,-121.738,-00.2166,+00.2502,-00.4497,+09.837,+00.099,+00.053,-00.003098,-00.015586,-00.006442*64
"
1712237002.810584,-070.212,+089.060,-120.178,-00.2141,+00.2608,-00.4590,+09.780,+00.133,+00.025,-00.002511,-00.012113,-00.010187,"$VNYMR,-070.212,+089.060,-120.178,-00.2141,+00.2608,-00.4590,+09.780,+00.133,+00.025,-00.002511,-00.012113,-00.010187*6E
"
1712237002.835543,-068.760,+089.054,-118.731,-00.2166,+00.2502,-00.4537,+09.819,+00.158,+00.056,-00.003189,-00.011451,-00.011277,"$VNYMR,-068.760,+089.054,-118.731,-00.2166,+00.2502,-00.4537,+09.819,+00.158,+00.056,-00.003189,-00.011451,-00.011277*6E
"
1712237002.8633518,-067.303,+089.044,-117.278,-00.2175,+00.2597,-00.4525,+09.764,+00.178,+00.012,-00.002961,-00.006699,-00.013768,"$VNYMR,-067.303,+089.044,-117.278,-00.2175,+00.2597,-00.4525,+09.764,+00.178,+00.012,-00.002961,-00.006699,-00.013768*6A
"
1712237002.8859131,-066.358,+089.031,-116.339,-00.2197,+00.2574,-00.4580,+09.806,+00.221,+00.068,-00.003906,-00.005019,-00.010641,"$VNYMR,-066.358,+089.031,-116.339,-00.2197,+00.2574,-00.4580,+09.806,+00.221,+00.068,-00.003906,-00.005019,-00.010641*61
"
1712237002.9107168,-065.448,+089.019,-115.434,-00.2188,+00.2503,-00.4605,+09.778,+00.212,+00.079,-00.004930,-00.003670,-00.008811,"$VNYMR,-065.448,+089.019,-115.434,-00.2188,+00.2503,-00.4605,+09.778,+00.212,+00.079,-00.004930,-00.003670,-00.008811*6E
"
1712237002.935335,-064.795,+089.010,-114.787,-00.2188,+00.2491,-00.4418,+09.856,+00.198,+00.120,-00.004182,-00.005064,-00.005735,"$VNYMR,-064.795,+089.010,-114.787,-00.2188,+00.2491,-00.4418,+09.856,+00.198,+00.120,-00.004182,-00.005064,-00.005735*64
"
1712237002.9628358,-064.359,+089.005,-114.358,-00.2166,+00.2479,-00.4577,+09.829,+00.169,+00.104,-00.003888,-00.005669,-00.004479,"$VNYMR,-064.359,+089.005,-114.358,-00.2166,+00.2479,-00.4577,+09.829,+00.169,+00.104,-00.003888,-00.005669,-00.004479*69
"
1712237002.9858532,-064.022,+089.000,-114.028,-00.2208,+00.2586,-00.4554,+09.827,+00.155,+00.100,-00.003598,-00.005757,-00.005270,"$VNYMR,-064.022,+089.000,-114.028,-00.2208,+00.2586,-00.4554,+09.827,+00.155,+00.100,-00.003598,-00.005757,-00.005270*67
"
1712237003.0103903,-063.328,+088.995,-113.339,-00.2174,+00.2621,-00.4579,+09.847,+00.121,+00.120,-00.004955,-00.006521,-00.008438,"$VNYMR,-063.328,+088.995,-113.339,-00.2174,+00.2621,-00.4579,+09.847,+00.121,+00.120,-00.004955,-00.006521,-00.008438*6A
"
1712237003.035399,-062.565,+088.986,-112.582,-00.2209,+00.2551,-00.4647,+09.746,+00.128,+00.126,-00.002753,-00.005369,-00.012679,"$VNYMR,-062.565,+088.986,-112.582,-00.2209,+00.2551,-00.4647,+09.746,+00.128,+00.126,-00.002753,-00.005369,-00.012679*68
"
1712237003.0604146,-061.677,+088.973,-111.698,-00.2185,+00.2621,-00.4646,+09.850,+00.121,+00.059,-00.002384,-00.007268,-00.014011,"$VNYMR,-061.677,+088.973,-111.698,-00.2185,+00.2621,-00.4646,+09.850,+00.121,+00.059,-00.002384,-00.007268,-00.014011*62
"
1712237003.0853097,-060.670,+088.956,-110.695,-00.2199,+00.2503,-00.4459,+09.769,+00.152,+00.086,-00.003496,-00.005182,-00.016668,"$VNYMR,-060.670,+088.956,-110.695,-00.2199,+00.2503,-00.4459,+09.769,+00.152,+00.086,-00.003496,-00.005182,-00.016668*64
"
1712237003.1107175,-059.829,+088.936,-109.858,-00.2177,+00.2491,-00.4551,+09.808,+00.168,+00.074,-00.003279,-00.004771,-00.016962,"$VNYMR,-059.829,+088.936,-109.858,-00.2177,+00.2491,-00.4551,+09.808,+00.168,+00.074,-00.003279,-00.004771,-00.016962*6B
"
1712237003.138235,-059.092,+088.918,-109.125,-00.2177,+00.2491,-00.4551,+09.773,+00.195,+00.048,-00.002517,-00.000588,-00.014612,"$VNYMR,-059.092,+088.918,-109.125,-00.2177,+00.2491,-00.4551,+09.773,+00.195,+00.048,-00.002517,-00.000588,-00.014612*66
"
1712237003.163277,-058.919,+088.900,-108.956,-00.2185,+00.2668,-00.4513,+09.809,+00.222,+00.045,-00.002991,-00.001049,-00.008857,"$VNYMR,-058.919,+088.900,-108.956,-00.2185,+00.2668,-00.4513,+09.809,+00.222,+00.045,-00.002991,-00.001049,-00.008857*6F
"
1712237003.185405,-058.966,+088.887,-109.009,-00.2176,+00.2550,-00.4591,+09.782,+00.216,+00.113,-00.004179,+00.003765,-00.005843,"$VNYMR,-058.966,+088.887,-109.009,-00.2176,+00.2550,-00.4591,+09.782,+00.216,+00.113,-00.004179,+00.003765,-00.005843*61
"
1712237003.2128608,-059.160,+088.878,-109.209,-00.2154,+00.2538,-00.4590,+09.820,+00.150,+00.079,-00.004245,+00.001114,-00.003597,"$VNYMR,-059.160,+088.878,-109.209,-00.2154,+00.2538,-00.4590,+09.820,+00.150,+00.079,-00.004245,+00.001114,-00.003597*64
"
1712237003.2356443,-059.422,+088.870,-109.476,-00.2187,+00.2526,-00.4458,+09.746,+00.134,+00.079,-00.003112,+00.007984,-00.005237,"$VNYMR,-059.422,+088.870,-109.476,-00.2187,+00.2526,-00.4458,+09.746,+00.134,+00.079,-00.003112,+00.007984,-00.005237*62
"
1712237003.2631793,-059.649,+088.860,-109.707,-00.2166,+00.2491,-00.4590,+09.868,+00.102,+00.087,-00.002341,+00.007371,-00.007233,"$VNYMR,-059.649,+088.860,-109.707,-00.2166,+00.2491,-00.4590,+09.868,+00.102,+00.087,-00.002341,+00.007371,-00.007233*6A
"
1712237003.2852457,-059.903,+088.845,-109.963,-00.2210,+00.2491,-00.4512,+09.810,+00.096,+00.117,-00.002312,+00.005203,-00.012075,"$VNYMR,-059.903,+088.845,-109.963,-00.2210,+00.2491,-00.4512,+09.810,+00.096,+00.117,-00.002312,+00.005203,-00.012075*67
"
1712237003.3129978,-060.050,+088.825,-110.113,-00.2196,+00.2657,-00.4500,+09.875,+00.125,+00.123,-00.001685,+00.005247,-00.014369,"$VNYMR,-060.050,+088.825,-110.113,-00.2196,+00.2657,-00.4500,+09.875,+00.125,+00.123,-00.001685,+00.005247,-00.014369*68
"
1712237003.3358445,-060.022,+088.804,-110.088,-00.2197,+00.2621,-00.4593,+09.770,+00.156,+00.120,-00.000122,+00.002427,-00.013995,"$VNYMR,-060.022,+088.804,-110.088,-00.2197,+00.2621,-00.4593,+09.770,+00.156,+00.120,-00.000122,+00.002427,-00.013995*68
"
1712237003.3607037,-060.001,+088.783,-110.068,-00.2188,+00.2467,-00.4591,+09.792,+00.225,+00.093,-00.002082,+00.003976,-00.011570,"$VNYMR,-060.001,+088.783,-110.068,-00.2188,+00.2467,-00.4591,+09.792,+00.225,+00.093,-00.002082,+00.003976,-00.011570*6D
"
1712237003.3882284,-059.867,+088.766,-109.936,-00.2200,+00.2468,-00.4432,+09.789,+00.226,+00.066,-00.001745,+00.002175,-00.009500,"$VNYMR,-059.867,+088.766,-109.936,-00.2200,+00.2468,-00.4432,+09.789,+00.226,+00.066,-00.001745,+00.002175,-00.009500*62
"
1712237003.412854,-059.765,+088.756,-109.836,-00.2177,+00.2479,-00.4577,+09.813,+00.203,+00.066,-00.000587,+00.005344,-00.005157,"$VNYMR,-059.765,+088.756,-109.836,-00.2177,+00.2479,-00.4577,+09.813,+00.203,+00.066,-00.000587,+00.005344,-00.005157*65
"
1712237003.4354284,-060.037,+088.749,-110.108,-00.2222,+00.2468,-00.4499,+09.822,+00.187,+00.046,-00.000705,+00.004605,-00.003348,"$VNYMR,-060.037,+088.749,-110.108,-00.2222,+00.2468,-00.4499,+09.822,+00.187,+00.046,-00.000705,+00.004605,-00.003348*63
"
1712237003.4602997,-060.548,+088.742,-110.621,-00.2185,+00.2621,-00.4526,+09.789,+00.154,+00.032,-00.001024,+00.011168,-00.001211,"$VNYMR,-060.548,+088.742,-110.621,-00.2185,+00.2621,-00.4526,+09.789,+00.154,+00.032,-00.001024,+00.011168,-00.001211*6C
"
1712237003.4855165,-061.155,+088.735,-111.229,-00.2175,+00.2574,-00.4605,+09.778,+00.150,+00.057,-00.000799,+00.012495,-00.003986,"$VNYMR,-061.155,+088.735,-111.229,-00.2175,+00.2574,-00.4605,+09.778,+00.150,+00.057,-00.000799,+00.012495,-00.003986*6C
"
1712237003.5131977,-061.978,+088.724,-112.053,-00.2199,+00.2479,-00.4605,+09.770,+00.128,+00.081,-00.000754,+00.014707,-00.004947,"$VNYMR,-061.978,+088.724,-112.053,-00.2199,+00.2479,-00.4605,+09.770,+00.128,+00.081,-00.000754,+00.014707,-00.004947*60
"
1712237003.5351477,-062.906,+088.709,-112.982,-00.2199,+00.2479,-00.4485,+09.818,+00.127,+00.079,-00.000422,+00.016496,-00.007928,"$VNYMR,-062.906,+088.709,-112.982,-00.2199,+00.2479,-00.4485,+09.818,+00.127,+00.079,-00.000422,+00.016496,-00.007928*62
"
1712237003.560372,-063.733,+088.692,-113.809,-00.2198,+00.2550,-00.4593,+09.810,+00.176,+00.159,-00.001137,+00.014277,-00.007560,"$VNYMR,-063.733,+088.692,-113.809,-00.2198,+00.2550,-00.4593,+09.810,+00.176,+00.159,-00.001137,+00.014277,-00.007560*62
"
1712237003.585273,-064.466,+088.673,-114.541,-00.2210,+00.2491,-00.4566,+09.847,+00.186,+00.104,+00.000304,+00.013750,-00.007426,"$VNYMR,-064.466,+088.673,-114.541,-00.2210,+00.2491,-00.4566,+09.847,+00.186,+00.104,+00.000304,+00.013750,-00.007426*6E
"
1712237003.6119554,-065.045,+088.658,-115.118,-00.2186,+00.2586,-00.4539,+09.818,+00.213,+00.134,+00.000645,+00.010520,-00.003757,"$VNYMR,-065.045,+088.658,-115.118,-00.2186,+00.2586,-00.4539,+09.818,+00.213,+00.134,+00.000645,+00.010520,-00.003757*6A
"
1712237003.6369483,-065.568,+088.650,-115.639,-00.2165,+00.2526,-00.4591,+09.845,+00.216,+00.158,+00.000780,+00.010323,-00.000215,"$VNYMR,-065.568,+088.650,-115.639,-00.2165,+00.2526,-00.4591,+09.845,+00.216,+00.158,+00.000780,+00.010323,-00.000215*63
"
1712237003.6633236,-066.114,+088.645,-116.183,-00.2188,+00.2491,-00.4631,+09.752,+00.191,+00.064,+00.000729,+00.007468,+00.002618,"$VNYMR,-066.114,+088.645,-116.183,-00.2188,+00.2491,-00.4631,+09.752,+00.191,+00.064,+00.000729,+00.007468,+00.002618*62
"
1712237003.685287,-066.636,+088.645,-116.702,-00.2200,+00.2468,-00.4458,+09.822,+00.176,+00.099,+00.001200,+00.009361,+00.002823,"$VNYMR,-066.636,+088.645,-116.702,-00.2200,+00.2468,-00.4458,+09.822,+00.176,+00.099,+00.001200,+00.009361,+00.002823*68
"
1712237003.7101178,-067.232,+088.647,-117.297,-00.2144,+00.2478,-00.4576,+09.809,+00.168,+00.068,+00.002325,+00.010133,+00.003755,"$VNYMR,-067.232,+088.647,-117.297,-00.2144,+00.2478,-00.4576,+09.809,+00.168,+00.068,+00.002325,+00.010133,+00.003755*63
"
1712237003.7356555,-067.924,+088.644,-117.985,-00.2209,+00.2527,-00.4526,+09.771,+00.139,+00.042,+00.001052,+00.013285,+00.000236,"$VNYMR,-067.924,+088.644,-117.985,-00.2209,+00.2527,-00.4526,+09.771,+00.139,+00.042,+00.001052,+00.013285,+00.000236*62
"
1712237003.7606792,-068.666,+088.637,-118.724,-00.2197,+00.2574,-00.4580,+09.776,+00.152,+00.086,+00.001855,+00.015364,-00.000911,"$VNYMR,-068.666,+088.637,-118.724,-00.2197,+00.2574,-00.4580,+09.776,+00.152,+00.086,+00.001855,+00.015364,-00.000911*69
"
1712237003.7852736,-069.708,+088.624,-119.763,-00.2165,+00.2538,-00.4591,+09.802,+00.181,+00.077,+00.001810,+00.016808,-00.000661,"$VNYMR,-069.708,+088.624,-119.763,-00.2165,+00.2538,-00.4591,+09.802,+00.181,+00.077,+00.001810,+00.016808,-00.000661*63
"
1712237003.8106918,-070.595,+088.611,-120.648,-00.2145,+00.2431,-00.4615,+09.827,+00.172,+00.110,+00.001288,+00.017240,+00.000787,"$VNYMR,-070.595,+088.611,-120.648,-00.2145,+00.2431,-00.4615,+09.827,+00.172,+00.110,+00.001288,+00.017240,+00.000787*64
"
1712237003.8374608,-071.593,+088.600,-121.641,-00.2198,+00.2527,-00.4539,+09.841,+00.229,+00.133,+00.002667,+00.016242,+00.002332,"$VNYMR,-071.593,+088.600,-121.641,-00.2198,+00.2527,-00.4539,+09.841,+00.229,+00.133,+00.002667,+00.016242,+00.002332*61
"
1712237003.8623846,-072.593,+088.592,-122.636,-00.2177,+00.2479,-00.4591,+09.833,+00.215,+00.164,+00.001729,+00.015958,+00.007223,"$VNYMR,-072.593,+088.592,-122.636,-00.2177,+00.2479,-00.4591,+09.833,+00.215,+00.164,+00.001729,+00.015958,+00.007223*67
"
1712237003.8850362,-073.504,+088.590,-123.543,-00.2211,+00.2444,-00.4525,+09.820,+00.227,+00.119,+00.003526,+00.011594,+00.008769,"$VNYMR,-073.504,+088.590,-123.543,-00.2211,+00.2444,-00.4525,+09.820,+00.227,+00.119,+00.003526,+00.011594,+00.008769*62
"
1712237003.913137,-074.314,+088.594,-124.347,-00.2187,+00.2562,-00.4565,+09.837,+00.151,+00.123,+00.004032,+00.008756,+00.009794,"$VNYMR,-074.314,+088.594,-124.347,-00.2187,+00.2562,-00.4565,+09.837,+00.151,+00.123,+00.004032,+00.008756,+00.009794*63
"
1712237003.934988,-074.996,+088.602,-125.024,-00.2175,+00.2574,-00.4632,+09.818,+00.165,+00.096,+00.003603,+00.009515,+00.009517,"$VNYMR,-074.996,+088.602,-125.024,-00.2175,+00.2574,-00.4632,+09.818,+00.165,+00.096,+00.003603,+00.009515,+00.009517*68
"
1712237003.962883,-075.735,+088.607,-125.757,-00.2166,+00.2479,-00.4630,+09.798,+00.144,+00.097,+00.003834,+00.007231,+00.007412,"$VNYMR,-075.735,+088.607,-125.757,-00.2166,+00.2479,-00.4630,+09.798,+00.144,+00.097,+00.003834,+00.007231,+00.007412*6E
"
1712237003.9854412,-076.242,+088.611,-126.257,-00.2211,+00.2468,-00.4539,+09.780,+00.123,+00.083,+00.003590,+00.008050,+00.004938,"$VNYMR,-076.242,+088.611,-126.257,-00.2211,+00.2468,-00.4539,+09.780,+00.123,+00.083,+00.003590,+00.008050,+00.004938*62
"
1712237004.0124557,-076.698,+088.613,-126.708,-00.2166,+00.2491,-00.4617,+09.797,+00.175,+00.104,+00.003665,+00.008071,+00.003905,"$VNYMR,-076.698,+088.613,-126.708,-00.2166,+00.2491,-00.4617,+09.797,+00.175,+00.104,+00.003665,+00.008071,+00.003905*6E
"
1712237004.0374618,-077.373,+088.608,-127.375,-00.2220,+00.2539,-00.4580,+09.818,+00.198,+00.099,+00.004300,+00.012273,+00.003925,"$VNYMR,-077.373,+088.608,-127.375,-00.2220,+00.2539,-00.4580,+09.818,+00.198,+00.099,+00.004300,+00.012273,+00.003925*63
"
1712237004.0640347,-077.950,+088.607,-127.947,-00.2197,+00.2609,-00.4580,+09.804,+00.188,+00.071,+00.002294,+00.010745,+00.006541,"$VNYMR,-077.950,+088.607,-127.947,-00.2197,+00.2609,-00.4580,+09.804,+00.188,+00.071,+00.002294,+00.010745,+00.006541*6A
"
1712237004.0863366,-078.788,+088.607,-128.780,-00.2174,+00.2645,-00.4619,+09.806,+00.221,+00.089,+00.003032,+00.013146,+00.010566,"$VNYMR,-078.788,+088.607,-128.780,-00.2174,+00.2645,-00.4619,+09.806,+00.221,+00.089,+00.003032,+00.013146,+00.010566*6C
"
1712237004.1114838,-079.739,+088.610,-129.727,-00.2155,+00.2479,-00.4670,+09.790,+00.201,+00.119,+00.002069,+00.011693,+00.013246,"$VNYMR,-079.739,+088.610,-129.727,-00.2155,+00.2479,-00.4670,+09.790,+00.201,+00.119,+00.002069,+00.011693,+00.013246*62
"
1712237004.1381412,-080.793,+088.615,-130.777,-00.2177,+00.2491,-00.4551,+09.823,+00.179,+00.119,+00.002384,+00.008636,+00.014903,"$VNYMR,-080.793,+088.615,-130.777,-00.2177,+00.2491,-00.4551,+09.823,+00.179,+00.119,+00.002384,+00.008636,+00.014903*6B
"
1712237004.1642294,-081.805,+088.625,-131.786,-00.2165,+00.2526,-00.4577,+09.833,+00.151,+00.106,+00.003016,+00.005583,+00.014849,"$VNYMR,-081.805,+088.625,-131.786,-00.2165,+00.2526,-00.4577,+09.833,+00.151,+00.106,+00.003016,+00.005583,+00.014849*6F
"
1712237004.1848228,-082.620,+088.637,-132.596,-00.2177,+00.2467,-00.4577,+09.828,+00.120,+00.159,+00.002435,+00.002849,+00.013148,"$VNYMR,-082.620,+088.637,-132.596,-00.2177,+00.2467,-00.4577,+09.828,+00.120,+00.159,+00.002435,+00.002849,+00.013148*60
"
