Timestamp,Yaw,Pitch,Roll,Angular Velocity X,Angular Velocity Y,Angular Velocity Z,Linear Acceleration X,Linear Acceleration Y,Linear Acceleration Z,Magnetic Field X,Magnetic Field Y,Magnetic Field Z,Original String
1712237351.7254128,-090.562,+089.642,-160.712,-00.2053,+00.2607,-00.4132,+09.871,-00.019,+00.136,+00.007995,-00.118950,-00.021846,"$VNYMR,-090.562,+089.642,-160.712,-00.2053,+00.2607,-00.4132,+09.871,-00.019,+00.136,+00.007995,-00.118950,-00.021846*65
"
1712237351.752639,-067.059,+089.781,-137.193,-00.2054,+00.2559,-00.4025,+09.858,-00.038,+00.121,+00.007173,-00.122355,-00.024405,"$VNYMR,-067.059,+089.781,-137.193,-00.2054,+00.2559,-00.4025,+09.858,-00.038,+00.121,+00.007173,-00.122355,-00.024405*6D
"
1712237351.7790945,-013.732,+089.818,-083.856,-00.2052,+00.2618,-00.4039,+09.828,-00.052,+00.075,+00.007473,-00.127445,-00.024738,"$VNYMR,-013.732,+089.818,-083.856,-00.2052,+00.2618,-00.4039,+09.828,-00.052,+00.075,+00.007473,-00.127445,-00.024738*68
"
1712237351.8006663,+023.735,+089.707,-046.376,-00.2042,+00.2559,-00.4078,+09.817,-00.028,+00.035,+00.006462,-00.128289,-00.023449,"$VNYMR,+023.735,+089.707,-046.376,-00.2042,+00.2559,-00.4078,+09.817,-00.028,+00.035,+00.006462,-00.128289,-00.023449*66
"
1712237351.8253732,+037.775,+089.539,-032.324,-00.2054,+00.2512,-00.4064,+09.778,-00.019,-00.034,+00.005147,-00.128064,-00.023526,"$VNYMR,+037.775,+089.539,-032.324,-00.2054,+00.2512,-00.4064,+09.778,-00.019,-00.034,+00.005147,-00.128064,-00.023526*62
"
1712237351.8523185,+044.072,+089.368,-026.018,-00.2075,+00.2595,-00.3946,+09.794,+00.001,-00.051,+00.004742,-00.121290,-00.021596,"$VNYMR,+044.072,+089.368,-026.018,-00.2075,+00.2595,-00.3946,+09.794,+00.001,-00.051,+00.004742,-00.121290,-00.021596*6A
"
1712237351.8768342,+047.426,+089.204,-022.657,-00.2055,+00.2488,-00.4064,+09.761,+00.007,-00.076,+00.003369,-00.113971,-00.020636,"$VNYMR,+047.426,+089.204,-022.657,-00.2055,+00.2488,-00.4064,+09.761,+00.007,-00.076,+00.003369,-00.113971,-00.020636*61
"
1712237351.9006438,+049.709,+089.047,-020.369,-00.2064,+00.2583,-00.3959,+09.761,+00.027,-00.100,+00.001858,-00.108711,-00.018260,"$VNYMR,+049.709,+089.047,-020.369,-00.2064,+00.2583,-00.3959,+09.761,+00.027,-00.100,+00.001858,-00.108711,-00.018260*61
"
1712237351.9266143,+051.232,+088.902,-018.846,-00.2075,+00.2619,-00.4013,+09.782,+00.004,-00.077,+00.001019,-00.101776,-00.015712,"$VNYMR,+051.232,+088.902,-018.846,-00.2075,+00.2619,-00.4013,+09.782,+00.004,-00.077,+00.001019,-00.101776,-00.015712*64
"
1712237351.951708,+052.480,+088.764,-017.596,-00.2064,+00.2571,-00.3999,+09.804,-00.020,-00.042,-00.000190,-00.095710,-00.013006,"$VNYMR,+052.480,+088.764,-017.596,-00.2064,+00.2571,-00.3999,+09.804,-00.020,-00.042,-00.000190,-00.095710,-00.013006*60
"
1712237351.9765885,+053.449,+088.628,-016.626,-00.2044,+00.2488,-00.3997,+09.821,-00.007,-00.004,-00.000220,-00.092684,-00.013319,"$VNYMR,+053.449,+088.628,-016.626,-00.2044,+00.2488,-00.3997,+09.821,-00.007,-00.004,-00.000220,-00.092684,-00.013319*61
"
1712237352.0007596,+054.214,+088.492,-015.862,-00.2055,+00.2500,-00.3837,+09.817,-00.018,+00.036,-00.001388,-00.095987,-00.014576,"$VNYMR,+054.214,+088.492,-015.862,-00.2055,+00.2500,-00.3837,+09.817,-00.018,+00.036,-00.001388,-00.095987,-00.014576*61
"
1712237352.0267084,+054.804,+088.357,-015.274,-00.2044,+00.2476,-00.3943,+09.813,-00.014,+00.074,-00.001628,-00.096283,-00.014575,"$VNYMR,+054.804,+088.357,-015.274,-00.2044,+00.2476,-00.3943,+09.813,-00.014,+00.074,-00.001628,-00.096283,-00.014575*65
"
1712237352.0505261,+055.354,+088.215,-014.727,-00.2077,+00.2477,-00.3905,+09.799,-00.008,+00.020,-00.003470,-00.095649,-00.013953,"$VNYMR,+055.354,+088.215,-014.727,-00.2077,+00.2477,-00.3905,+09.799,-00.008,+00.020,-00.003470,-00.095649,-00.013953*6E
"
1712237352.078752,+055.858,+088.080,-014.228,-00.2053,+00.2571,-00.3931,+09.770,+00.018,-00.046,-00.003658,-00.092537,-00.012121,"$VNYMR,+055.858,+088.080,-014.228,-00.2053,+00.2571,-00.3931,+09.770,+00.018,-00.046,-00.003658,-00.092537,-00.012121*64
"
1712237352.1015363,+056.373,+087.948,-013.718,-00.2032,+00.2523,-00.3943,+09.789,+00.021,-00.106,-00.004743,-00.087447,-00.008866,"$VNYMR,+056.373,+087.948,-013.718,-00.2032,+00.2523,-00.3943,+09.789,+00.021,-00.106,-00.004743,-00.087447,-00.008866*65
"
1712237352.127109,+056.830,+087.836,-013.269,-00.2043,+00.2512,-00.3944,+09.696,+00.049,-00.142,-00.005894,-00.076749,-00.005254,"$VNYMR,+056.830,+087.836,-013.269,-00.2043,+00.2512,-00.3944,+09.696,+00.049,-00.142,-00.005894,-00.076749,-00.005254*61
"
1712237352.1530886,+057.314,+087.737,-012.797,-00.2064,+00.2583,-00.3799,+09.729,+00.011,-00.207,-00.008475,-00.063428,-00.001692,"$VNYMR,+057.314,+087.737,-012.797,-00.2064,+00.2583,-00.3799,+09.729,+00.011,-00.207,-00.008475,-00.063428,-00.001692*6B
"
1712237352.1794026,+057.763,+087.657,-012.360,-00.2056,+00.2441,-00.3903,+09.723,+00.012,-00.154,-00.009413,-00.050643,+00.000898,"$VNYMR,+057.763,+087.657,-012.360,-00.2056,+00.2441,-00.3903,+09.723,+00.012,-00.154,-00.009413,-00.050643,+00.000898*66
"
1712237352.2023947,+058.129,+087.599,-012.008,-00.2022,+00.2488,-00.3809,+09.702,-00.037,-00.120,-00.010886,-00.038111,+00.001172,"$VNYMR,+058.129,+087.599,-012.008,-00.2022,+00.2488,-00.3809,+09.702,-00.037,-00.120,-00.010886,-00.038111,+00.001172*6B
"
1712237352.2265644,+058.423,+087.552,-011.731,-00.2075,+00.2607,-00.3826,+09.743,-00.024,-00.079,-00.011243,-00.027623,+00.001446,"$VNYMR,+058.423,+087.552,-011.731,-00.2075,+00.2607,-00.3826,+09.743,-00.024,-00.079,-00.011243,-00.027623,+00.001446*65
"
1712237352.2538292,+058.674,+087.518,-011.499,-00.2043,+00.2547,-00.3904,+09.756,-00.020,-00.052,-00.011940,-00.021876,+00.002686,"$VNYMR,+058.674,+087.518,-011.499,-00.2043,+00.2547,-00.3904,+09.756,-00.020,-00.052,-00.011940,-00.021876,+00.002686*6D
"
1712237352.276378,+058.870,+087.495,-011.323,-00.2054,+00.2512,-00.3904,+09.778,-00.002,+00.012,-00.012505,-00.016300,+00.002172,"$VNYMR,+058.870,+087.495,-011.323,-00.2054,+00.2512,-00.3904,+09.778,-00.002,+00.012,-00.012505,-00.016300,+00.002172*61
"
1712237352.3026206,+059.098,+087.476,-011.115,-00.2078,+00.2441,-00.3811,+09.802,+00.015,+00.002,-00.012886,-00.017723,+00.004683,"$VNYMR,+059.098,+087.476,-011.115,-00.2078,+00.2441,-00.3811,+09.802,+00.015,+00.002,-00.012886,-00.017723,+00.004683*66
"
1712237352.3262596,+059.406,+087.456,-010.829,-00.2087,+00.2560,-00.3840,+09.769,+00.017,-00.029,-00.013098,-00.012984,+00.007147,"$VNYMR,+059.406,+087.456,-010.829,-00.2087,+00.2560,-00.3840,+09.769,+00.017,-00.029,-00.013098,-00.012984,+00.007147*65
"
1712237352.351854,+059.780,+087.445,-010.478,-00.2033,+00.2452,-00.3769,+09.783,+00.015,-00.062,-00.013624,-00.008068,+00.009957,"$VNYMR,+059.780,+087.445,-010.478,-00.2033,+00.2452,-00.3769,+09.783,+00.015,-00.062,-00.013624,-00.008068,+00.009957*66
"
1712237352.3780231,+060.177,+087.441,-010.102,-00.2053,+00.2595,-00.3798,+09.737,+00.016,-00.077,-00.013470,-00.002616,+00.012584,"$VNYMR,+060.177,+087.441,-010.102,-00.2053,+00.2595,-00.3798,+09.737,+00.016,-00.077,-00.013470,-00.002616,+00.012584*6A
"
1712237352.4013894,+060.591,+087.451,-009.711,-00.2043,+00.2547,-00.3904,+09.742,+00.003,-00.126,-00.014677,+00.007852,+00.014879,"$VNYMR,+060.591,+087.451,-009.711,-00.2043,+00.2547,-00.3904,+09.742,+00.003,-00.126,-00.014677,+00.007852,+00.014879*6B
"
1712237352.426334,+060.956,+087.478,-009.369,-00.2022,+00.2476,-00.3875,+09.697,-00.020,-00.171,-00.015591,+00.019073,+00.014541,"$VNYMR,+060.956,+087.478,-009.369,-00.2022,+00.2476,-00.3875,+09.697,-00.020,-00.171,-00.015591,+00.019073,+00.014541*6B
"
1712237352.45156,+061.317,+087.518,-009.033,-00.2043,+00.2547,-00.3744,+09.685,-00.001,-00.181,-00.016151,+00.032684,+00.016065,"$VNYMR,+061.317,+087.518,-009.033,-00.2043,+00.2547,-00.3744,+09.685,-00.001,-00.181,-00.016151,+00.032684,+00.016065*65
"
1712237352.47753,+061.623,+087.580,-008.753,-00.2044,+00.2464,-00.3890,+09.713,-00.001,-00.176,-00.016237,+00.045120,+00.016103,"$VNYMR,+061.623,+087.580,-008.753,-00.2044,+00.2464,-00.3890,+09.713,-00.001,-00.176,-00.016237,+00.045120,+00.016103*6A
"
1712237352.5015001,+061.920,+087.661,-008.481,-00.2044,+00.2464,-00.3783,+09.725,+00.006,-00.121,-00.016862,+00.058840,+00.017605,"$VNYMR,+061.920,+087.661,-008.481,-00.2044,+00.2464,-00.3783,+09.725,+00.006,-00.121,-00.016862,+00.058840,+00.017605*64
"
1712237352.5263925,+062.252,+087.756,-008.176,-00.2051,+00.2689,-00.3826,+09.730,+00.024,-00.099,-00.017048,+00.067127,+00.020560,"$VNYMR,+062.252,+087.756,-008.176,-00.2051,+00.2689,-00.3826,+09.730,+00.024,-00.099,-00.017048,+00.067127,+00.020560*63
"
1712237352.5515208,+062.652,+087.858,-007.802,-00.2020,+00.2559,-00.3916,+09.789,+00.021,+00.000,-00.015497,+00.071810,+00.021644,"$VNYMR,+062.652,+087.858,-007.802,-00.2020,+00.2559,-00.3916,+09.789,+00.021,+00.000,-00.015497,+00.071810,+00.021644*62
"
1712237352.578554,+063.194,+087.965,-007.287,-00.2041,+00.2618,-00.3945,+09.778,-00.010,-00.022,-00.016408,+00.074084,+00.025652,"$VNYMR,+063.194,+087.965,-007.287,-00.2041,+00.2618,-00.3945,+09.778,-00.010,-00.022,-00.016408,+00.074084,+00.025652*6B
"
1712237352.6015913,+063.831,+088.078,-006.678,-00.2055,+00.2500,-00.3797,+09.808,+00.005,+00.011,-00.015208,+00.072251,+00.025769,"$VNYMR,+063.831,+088.078,-006.678,-00.2055,+00.2500,-00.3797,+09.808,+00.005,+00.011,-00.015208,+00.072251,+00.025769*60
"
1712237352.6263118,+064.586,+088.189,-005.945,-00.2032,+00.2512,-00.3916,+09.783,-00.009,+00.005,-00.013735,+00.076700,+00.026969,"$VNYMR,+064.586,+088.189,-005.945,-00.2032,+00.2512,-00.3916,+09.783,-00.009,+00.005,-00.013735,+00.076700,+00.026969*68
"
1712237352.6513286,+065.459,+088.304,-005.092,-00.2065,+00.2536,-00.3878,+09.778,-00.002,-00.065,-00.012808,+00.079199,+00.026672,"$VNYMR,+065.459,+088.304,-005.092,-00.2065,+00.2536,-00.3878,+09.778,-00.002,-00.065,-00.012808,+00.079199,+00.026672*60
"
1712237352.6763434,+066.387,+088.428,-004.182,-00.2062,+00.2678,-00.3933,+09.760,-00.013,-00.056,-00.011134,+00.085110,+00.026396,"$VNYMR,+066.387,+088.428,-004.182,-00.2062,+00.2678,-00.3933,+09.760,-00.013,-00.056,-00.011134,+00.085110,+00.026396*6E
"
1712237352.70122,+067.453,+088.560,-003.136,-00.2019,+00.2641,-00.3931,+09.718,-00.010,-00.092,-00.011265,+00.093246,+00.025940,"$VNYMR,+067.453,+088.560,-003.136,-00.2019,+00.2641,-00.3931,+09.718,-00.010,-00.092,-00.011265,+00.093246,+00.025940*66
"
1712237352.7269628,+068.652,+088.705,-001.954,-00.2010,+00.2499,-00.3955,+09.749,-00.021,-00.134,-00.010898,+00.104306,+00.025280,"$VNYMR,+068.652,+088.705,-001.954,-00.2010,+00.2499,-00.3955,+09.749,-00.021,-00.134,-00.010898,+00.104306,+00.025280*66
"
1712237352.7533443,+070.202,+088.865,-000.421,-00.2021,+00.2511,-00.3836,+09.763,-00.013,-00.104,-00.011005,+00.111853,+00.026030,"$VNYMR,+070.202,+088.865,-000.421,-00.2021,+00.2511,-00.3836,+09.763,-00.013,-00.104,-00.011005,+00.111853,+00.026030*6C
"
1712237352.776215,+072.247,+089.032,+001.606,-00.2021,+00.2535,-00.4049,+09.761,+00.004,-00.049,-00.009472,+00.117343,+00.025382,"$VNYMR,+072.247,+089.032,+001.606,-00.2021,+00.2535,-00.4049,+09.761,+00.004,-00.049,-00.009472,+00.117343,+00.025382*67
"
1712237352.8030884,+075.258,+089.206,+004.595,-00.2043,+00.2524,-00.3890,+09.793,+00.002,-00.000,-00.008658,+00.122507,+00.024647,"$VNYMR,+075.258,+089.206,+004.595,-00.2043,+00.2524,-00.3890,+09.793,+00.002,-00.000,-00.008658,+00.122507,+00.024647*68
"
1712237352.8287427,+079.901,+089.376,+009.224,-00.2030,+00.2630,-00.3958,+09.834,+00.010,+00.020,-00.008268,+00.121326,+00.027438,"$VNYMR,+079.901,+089.376,+009.224,-00.2030,+00.2630,-00.3958,+09.834,+00.010,+00.020,-00.008268,+00.121326,+00.027438*6F
"
1712237352.851262,+087.965,+089.541,+017.271,-00.2031,+00.2594,-00.4024,+09.843,-00.041,+00.059,-00.007180,+00.121029,+00.026755,"$VNYMR,+087.965,+089.541,+017.271,-00.2031,+00.2594,-00.4024,+09.843,-00.041,+00.059,-00.007180,+00.121029,+00.026755*6B
"
1712237352.876171,+103.508,+089.683,+032.803,-00.2041,+00.2618,-00.4052,+09.841,-00.060,+00.091,-00.006467,+00.117569,+00.024996,"$VNYMR,+103.508,+089.683,+032.803,-00.2041,+00.2618,-00.4052,+09.841,-00.060,+00.091,-00.006467,+00.117569,+00.024996*6A
"
1712237352.9036272,+133.907,+089.770,+063.191,-00.2021,+00.2500,-00.3916,+09.836,-00.022,+00.071,-00.005654,+00.109984,+00.024419,"$VNYMR,+133.907,+089.770,+063.191,-00.2021,+00.2500,-00.3916,+09.836,-00.022,+00.071,-00.005654,+00.109984,+00.024419*60
"
1712237352.9281716,+174.310,+089.757,+103.585,-00.2021,+00.2535,-00.4063,+09.846,-00.016,+00.071,-00.004080,+00.107515,+00.021226,"$VNYMR,+174.310,+089.757,+103.585,-00.2021,+00.2535,-00.4063,+09.846,-00.016,+00.071,-00.004080,+00.107515,+00.021226*6D
"
1712237352.9512732,-159.818,+089.657,+129.449,-00.2042,+00.2595,-00.3998,+09.849,-00.004,+00.009,-00.002429,+00.108762,+00.020343,"$VNYMR,-159.818,+089.657,+129.449,-00.2042,+00.2595,-00.3998,+09.849,-00.004,+00.009,-00.002429,+00.108762,+00.020343*66
"
1712237352.9762316,-147.121,+089.524,+142.140,-00.2029,+00.2701,-00.4052,+09.784,-00.033,-00.015,-00.001936,+00.109988,+00.020266,"$VNYMR,-147.121,+089.524,+142.140,-00.2029,+00.2701,-00.4052,+09.784,-00.033,-00.015,-00.001936,+00.109988,+00.020266*6A
"
1712237353.0036755,-139.801,+089.373,+149.453,-00.2020,+00.2594,-00.4144,+09.801,-00.008,-00.045,-00.002818,+00.113461,+00.017963,"$VNYMR,-139.801,+089.373,+149.453,-00.2020,+00.2594,-00.4144,+09.801,-00.008,-00.045,-00.002818,+00.113461,+00.017963*6B
"
1712237353.0261402,-135.266,+089.214,+153.983,-00.2063,+00.2654,-00.4120,+09.794,+00.000,-00.016,-00.001502,+00.114993,+00.019336,"$VNYMR,-135.266,+089.214,+153.983,-00.2063,+00.2654,-00.4120,+09.794,+00.000,-00.016,-00.001502,+00.114993,+00.019336*60
"
1712237353.0529995,-132.151,+089.048,+157.095,-00.2030,+00.2642,-00.3998,+09.828,-00.010,-00.015,-00.000844,+00.116432,+00.020541,"$VNYMR,-132.151,+089.048,+157.095,-00.2030,+00.2642,-00.3998,+09.828,-00.010,-00.015,-00.000844,+00.116432,+00.020541*66
"
1712237353.076436,-129.959,+088.877,+159.286,-00.2031,+00.2559,-00.4157,+09.822,-00.038,-00.000,+00.000408,+00.119171,+00.018835,"$VNYMR,-129.959,+088.877,+159.286,-00.2031,+00.2559,-00.4157,+09.822,-00.038,-00.000,+00.000408,+00.119171,+00.018835*6D
"
1712237353.1012774,-128.404,+088.709,+160.840,-00.2042,+00.2571,-00.4091,+09.834,-00.007,+00.090,+00.000366,+00.115155,+00.018862,"$VNYMR,-128.404,+088.709,+160.840,-00.2042,+00.2571,-00.4091,+09.834,-00.007,+00.090,+00.000366,+00.115155,+00.018862*63
"
1712237353.1261184,-127.211,+088.546,+162.032,-00.2029,+00.2701,-00.4132,+09.881,-00.027,+00.135,+00.000303,+00.109685,+00.018061,"$VNYMR,-127.211,+088.546,+162.032,-00.2029,+00.2701,-00.4132,+09.881,-00.027,+00.135,+00.000303,+00.109685,+00.018061*65
"
1712237353.1513991,-126.291,+088.398,+162.953,-00.2019,+00.2630,-00.4224,+09.865,-00.046,+00.139,+00.002103,+00.100788,+00.014400,"$VNYMR,-126.291,+088.398,+162.953,-00.2019,+00.2630,-00.4224,+09.865,-00.046,+00.139,+00.002103,+00.100788,+00.014400*68
"
1712237353.1762443,-125.542,+088.264,+163.707,-00.2053,+00.2583,-00.4225,+09.888,-00.049,+00.165,+00.003478,+00.090605,+00.011135,"$VNYMR,-125.542,+088.264,+163.707,-00.2053,+00.2583,-00.4225,+09.888,-00.049,+00.165,+00.003478,+00.090605,+00.011135*6D
"
1712237353.201263,-124.854,+088.143,+164.401,-00.2042,+00.2595,-00.4078,+09.885,-00.062,+00.153,+00.004389,+00.080440,+00.007857,"$VNYMR,-124.854,+088.143,+164.401,-00.2042,+00.2595,-00.4078,+09.885,-00.062,+00.153,+00.004389,+00.080440,+00.007857*68
"
1712237353.2262506,-124.210,+088.033,+165.053,-00.2041,+00.2630,-00.4238,+09.847,-00.026,+00.136,+00.004585,+00.073641,+00.005391,"$VNYMR,-124.210,+088.033,+165.053,-00.2041,+00.2630,-00.4238,+09.847,-00.026,+00.136,+00.004585,+00.073641,+00.005391*64
"
1712237353.2512407,-123.621,+087.935,+165.650,-00.2008,+00.2618,-00.4223,+09.839,-00.040,+00.111,+00.007286,+00.067338,+00.002819,"$VNYMR,-123.621,+087.935,+165.650,-00.2008,+00.2618,-00.4223,+09.839,-00.040,+00.111,+00.007286,+00.067338,+00.002819*64
"
1712237353.2790053,-123.130,+087.845,+166.153,-00.2050,+00.2760,-00.4267,+09.788,-00.002,+00.053,+00.007679,+00.063805,+00.003543,"$VNYMR,-123.130,+087.845,+166.153,-00.2050,+00.2760,-00.4267,+09.788,-00.002,+00.053,+00.007679,+00.063805,+00.003543*63
"
1712237353.3012533,-122.671,+087.756,+166.622,-00.1997,+00.2594,-00.4276,+09.799,-00.020,+00.040,+00.007299,+00.061035,+00.002967,"$VNYMR,-122.671,+087.756,+166.622,-00.1997,+00.2594,-00.4276,+09.799,-00.020,+00.040,+00.007299,+00.061035,+00.002967*6E
"
1712237353.3277993,-122.272,+087.671,+167.035,-00.2031,+00.2571,-00.4251,+09.811,-00.014,+00.036,+00.008124,+00.059921,+00.002697,"$VNYMR,-122.272,+087.671,+167.035,-00.2031,+00.2571,-00.4251,+09.811,-00.014,+00.036,+00.008124,+00.059921,+00.002697*60
"
1712237353.3511405,-121.906,+087.591,+167.414,-00.2053,+00.2583,-00.4158,+09.797,-00.025,+00.056,+00.008683,+00.056257,+00.002159,"$VNYMR,-121.906,+087.591,+167.414,-00.2053,+00.2583,-00.4158,+09.797,-00.025,+00.056,+00.008683,+00.056257,+00.002159*6D
"
1712237353.3762932,-121.561,+087.517,+167.774,-00.2032,+00.2535,-00.4370,+09.872,-00.032,+00.084,+00.009478,+00.048825,+00.000403,"$VNYMR,-121.561,+087.517,+167.774,-00.2032,+00.2535,-00.4370,+09.872,-00.032,+00.084,+00.009478,+00.048825,+00.000403*6B
"
1712237353.4030175,-121.209,+087.451,+168.141,-00.2052,+00.2642,-00.4199,+09.852,-00.035,+00.161,+00.009826,+00.042346,-00.001617,"$VNYMR,-121.209,+087.451,+168.141,-00.2052,+00.2642,-00.4199,+09.852,-00.035,+00.161,+00.009826,+00.042346,-00.001617*62
"
1712237353.4261792,-120.862,+087.401,+168.504,-00.2052,+00.2630,-00.4239,+09.898,-00.033,+00.169,+00.011334,+00.032418,-00.004707,"$VNYMR,-120.862,+087.401,+168.504,-00.2052,+00.2630,-00.4239,+09.898,-00.033,+00.169,+00.011334,+00.032418,-00.004707*6F
"
1712237353.45333,-120.507,+087.369,+168.877,-00.1997,+00.2629,-00.4276,+09.862,-00.047,+00.207,+00.012424,+00.019941,-00.006965,"$VNYMR,-120.507,+087.369,+168.877,-00.1997,+00.2629,-00.4276,+09.862,-00.047,+00.207,+00.012424,+00.019941,-00.006965*69
"
1712237353.476202,-120.160,+087.356,+169.245,-00.2008,+00.2629,-00.4344,+09.876,-00.038,+00.195,+00.012506,+00.006413,-00.009800,"$VNYMR,-120.160,+087.356,+169.245,-00.2008,+00.2629,-00.4344,+09.876,-00.038,+00.195,+00.012506,+00.006413,-00.009800*6B
"
1712237353.5011628,-119.833,+087.363,+169.593,-00.2031,+00.2583,-00.4237,+09.856,-00.025,+00.188,+00.012771,-00.004156,-00.011936,"$VNYMR,-119.833,+087.363,+169.593,-00.2031,+00.2583,-00.4237,+09.856,-00.025,+00.188,+00.012771,-00.004156,-00.011936*65
"
1712237353.5286703,-119.506,+087.382,+169.942,-00.2031,+00.2559,-00.4291,+09.869,-00.019,+00.149,+00.013627,-00.016966,-00.013005,"$VNYMR,-119.506,+087.382,+169.942,-00.2031,+00.2559,-00.4291,+09.869,-00.019,+00.149,+00.013627,-00.016966,-00.013005*64
"
1712237353.5534644,-119.173,+087.412,+170.296,-00.2074,+00.2631,-00.4227,+09.811,-00.009,+00.120,+00.012340,-00.021936,-00.015153,"$VNYMR,-119.173,+087.412,+170.296,-00.2074,+00.2631,-00.4227,+09.811,-00.009,+00.120,+00.012340,-00.021936,-00.015153*66
"
1712237353.5761716,-118.861,+087.452,+170.629,-00.2084,+00.2714,-00.4242,+09.819,-00.030,+00.078,+00.012979,-00.027809,-00.014381,"$VNYMR,-118.861,+087.452,+170.629,-00.2084,+00.2714,-00.4242,+09.819,-00.030,+00.078,+00.012979,-00.027809,-00.014381*6A
"
1712237353.6013305,-118.533,+087.498,+170.978,-00.2039,+00.2736,-00.4280,+09.803,-00.013,+00.047,+00.013078,-00.030410,-00.015816,"$VNYMR,-118.533,+087.498,+170.978,-00.2039,+00.2736,-00.4280,+09.803,-00.013,+00.047,+00.013078,-00.030410,-00.015816*6C
"
1712237353.6275272,-118.183,+087.553,+171.351,-00.2043,+00.2547,-00.4331,+09.841,-00.047,+00.076,+00.012280,-00.033725,-00.016511,"$VNYMR,-118.183,+087.553,+171.351,-00.2043,+00.2547,-00.4331,+09.841,-00.047,+00.076,+00.012280,-00.033725,-00.016511*69
"
1712237353.6536932,-117.782,+087.608,+171.773,-00.2063,+00.2619,-00.4226,+09.815,-00.023,+00.095,+00.013895,-00.038845,-00.017380,"$VNYMR,-117.782,+087.608,+171.773,-00.2063,+00.2619,-00.4226,+09.815,-00.023,+00.095,+00.013895,-00.038845,-00.017380*69
"
1712237353.6761606,-117.358,+087.672,+172.218,-00.2064,+00.2583,-00.4306,+09.877,-00.035,+00.168,+00.011675,-00.041829,-00.019714,"$VNYMR,-117.358,+087.672,+172.218,-00.2064,+00.2583,-00.4306,+09.877,-00.035,+00.168,+00.011675,-00.041829,-00.019714*69
"
1712237353.7036712,-116.893,+087.749,+172.704,-00.2020,+00.2571,-00.4197,+09.870,-00.041,+00.180,+00.011805,-00.053737,-00.021331,"$VNYMR,-116.893,+087.749,+172.704,-00.2020,+00.2571,-00.4197,+09.870,-00.041,+00.180,+00.011805,-00.053737,-00.021331*62
"
1712237353.7261503,-116.398,+087.836,+173.217,-00.2051,+00.2713,-00.4280,+09.899,-00.050,+00.199,+00.011630,-00.061301,-00.021639,"$VNYMR,-116.398,+087.836,+173.217,-00.2051,+00.2713,-00.4280,+09.899,-00.050,+00.199,+00.011630,-00.061301,-00.021639*6C
"
1712237353.7536283,-115.847,+087.937,+173.790,-00.2051,+00.2713,-00.4280,+09.912,-00.029,+00.181,+00.012491,-00.074375,-00.023664,"$VNYMR,-115.847,+087.937,+173.790,-00.2051,+00.2713,-00.4280,+09.912,-00.029,+00.181,+00.012491,-00.074375,-00.023664*6E
"
1712237353.7759235,-115.278,+088.056,+174.378,-00.2052,+00.2630,-00.4292,+09.878,-00.042,+00.155,+00.012913,-00.083261,-00.023499,"$VNYMR,-115.278,+088.056,+174.378,-00.2052,+00.2630,-00.4292,+09.878,-00.042,+00.155,+00.012913,-00.083261,-00.023499*6E
"
1712237353.8032343,-114.650,+088.189,+175.026,-00.2052,+00.2618,-00.4146,+09.883,-00.026,+00.092,+00.011563,-00.095646,-00.023679,"$VNYMR,-114.650,+088.189,+175.026,-00.2052,+00.2618,-00.4146,+09.883,-00.026,+00.092,+00.011563,-00.095646,-00.023679*65
"
1712237353.8261712,-113.916,+088.332,+175.781,-00.2074,+00.2666,-00.4241,+09.846,-00.030,+00.064,+00.011303,-00.098615,-00.024922,"$VNYMR,-113.916,+088.332,+175.781,-00.2074,+00.2666,-00.4241,+09.846,-00.030,+00.064,+00.011303,-00.098615,-00.024922*64
"
1712237353.853951,-113.038,+088.484,+176.681,-00.2087,+00.2560,-00.4160,+09.832,-00.027,+00.042,+00.012792,-00.103137,-00.025967,"$VNYMR,-113.038,+088.484,+176.681,-00.2087,+00.2560,-00.4160,+09.832,-00.027,+00.042,+00.012792,-00.103137,-00.025967*6A
"
1712237353.8771656,-111.916,+088.636,+177.822,-00.2107,+00.2655,-00.4135,+09.794,-00.025,+00.005,+00.011747,-00.104094,-00.025904,"$VNYMR,-111.916,+088.636,+177.822,-00.2107,+00.2655,-00.4135,+09.794,-00.025,+00.005,+00.011747,-00.104094,-00.025904*6F
"
1712237353.901869,-110.499,+088.785,+179.257,-00.2053,+00.2595,-00.4265,+09.807,-00.006,-00.019,+00.010906,-00.101881,-00.025865,"$VNYMR,-110.499,+088.785,+179.257,-00.2053,+00.2595,-00.4265,+09.807,-00.006,-00.019,+00.010906,-00.101881,-00.025865*68
"
1712237353.9287333,-108.715,+088.933,-178.943,-00.2076,+00.2536,-00.4199,+09.835,-00.016,+00.040,+00.009929,-00.101337,-00.025378,"$VNYMR,-108.715,+088.933,-178.943,-00.2076,+00.2536,-00.4199,+09.835,-00.016,+00.040,+00.009929,-00.101337,-00.025378*6C
"
1712237353.9537342,-106.502,+089.079,-176.715,-00.2075,+00.2619,-00.4053,+09.813,+00.021,+00.016,+00.008190,-00.101101,-00.023551,"$VNYMR,-106.502,+089.079,-176.715,-00.2075,+00.2619,-00.4053,+09.813,+00.021,+00.016,+00.008190,-00.101101,-00.023551*6B
"
1712237353.9760182,-103.505,+089.224,-173.702,-00.2065,+00.2536,-00.4172,+09.839,-00.007,+00.089,+00.007172,-00.105048,-00.022376,"$VNYMR,-103.505,+089.224,-173.702,-00.2065,+00.2536,-00.4172,+09.839,-00.007,+00.089,+00.007172,-00.105048,-00.022376*68
"
1712237354.0008485,-099.151,+089.373,-169.330,-00.2063,+00.2619,-00.4093,+09.829,+00.016,+00.096,+00.009035,-00.109149,-00.021932,"$VNYMR,-099.151,+089.373,-169.330,-00.2063,+00.2619,-00.4093,+09.829,+00.016,+00.096,+00.009035,-00.109149,-00.021932*64
"
1712237354.0260549,-091.931,+089.521,-162.097,-00.2096,+00.2667,-00.4082,+09.874,-00.021,+00.097,+00.007956,-00.115217,-00.021961,"$VNYMR,-091.931,+089.521,-162.097,-00.2096,+00.2667,-00.4082,+09.874,-00.021,+00.097,+00.007956,-00.115217,-00.021961*6F
"
1712237354.0512962,-077.641,+089.669,-147.796,-00.2064,+00.2571,-00.4092,+09.879,-00.017,+00.116,+00.006644,-00.119763,-00.022682,"$VNYMR,-077.641,+089.669,-147.796,-00.2064,+00.2571,-00.4092,+09.879,-00.017,+00.116,+00.006644,-00.119763,-00.022682*6F
"
1712237354.0783553,-046.278,+089.768,-116.419,-00.2075,+00.2572,-00.4159,+09.815,-00.023,+00.038,+00.006630,-00.126043,-00.022539,"$VNYMR,-046.278,+089.768,-116.419,-00.2075,+00.2572,-00.4159,+09.815,-00.023,+00.038,+00.006630,-00.126043,-00.022539*6F
"
1712237354.1008854,-001.789,+089.750,-071.920,-00.2109,+00.2560,-00.3961,+09.831,-00.012,+00.039,+00.006111,-00.127036,-00.024436,"$VNYMR,-001.789,+089.750,-071.920,-00.2109,+00.2560,-00.3961,+09.831,-00.012,+00.039,+00.006111,-00.127036,-00.024436*6C
"
1712237354.1260748,+023.838,+089.623,-046.282,-00.2077,+00.2501,-00.4132,+09.809,+00.012,+00.007,+00.006058,-00.126145,-00.023849,"$VNYMR,+023.838,+089.623,-046.282,-00.2077,+00.2501,-00.4132,+09.809,+00.012,+00.007,+00.006058,-00.126145,-00.023849*60
"
1712237354.1516342,+035.259,+089.469,-034.848,-00.2108,+00.2619,-00.4002,+09.791,+00.012,-00.039,+00.005005,-00.123014,-00.022773,"$VNYMR,+035.259,+089.469,-034.848,-00.2108,+00.2619,-00.4002,+09.791,+00.012,-00.039,+00.005005,-00.123014,-00.022773*67
"
1712237354.1761112,+041.498,+089.304,-028.602,-00.2118,+00.2667,-00.4016,+09.771,+00.001,-00.111,+00.004541,-00.118297,-00.021192,"$VNYMR,+041.498,+089.304,-028.602,-00.2118,+00.2667,-00.4016,+09.771,+00.001,-00.111,+00.004541,-00.118297,-00.021192*6B
"
1712237354.2009966,+045.188,+089.146,-024.903,-00.2086,+00.2584,-00.4027,+09.778,+00.014,-00.101,+00.002425,-00.109824,-00.017740,"$VNYMR,+045.188,+089.146,-024.903,-00.2086,+00.2584,-00.4027,+09.778,+00.014,-00.101,+00.002425,-00.109824,-00.017740*60
"
1712237354.225954,+047.628,+088.998,-022.460,-00.2087,+00.2548,-00.4053,+09.794,-00.001,-00.080,+00.002233,-00.104529,-00.017049,"$VNYMR,+047.628,+088.998,-022.460,-00.2087,+00.2548,-00.4053,+09.794,-00.001,-00.080,+00.002233,-00.104529,-00.017049*63
"
1712237354.2512367,+049.444,+088.858,-020.638,-00.2099,+00.2489,-00.3893,+09.772,-00.022,-00.039,+00.000201,-00.100438,-00.013372,"$VNYMR,+049.444,+088.858,-020.638,-00.2099,+00.2489,-00.3893,+09.772,-00.022,-00.039,+00.000201,-00.100438,-00.013372*67
"
1712237354.2760746,+050.907,+088.723,-019.174,-00.2111,+00.2466,-00.3987,+09.786,-00.026,+00.022,-00.000871,-00.095695,-00.012467,"$VNYMR,+050.907,+088.723,-019.174,-00.2111,+00.2466,-00.3987,+09.786,-00.026,+00.022,-00.000871,-00.095695,-00.012467*65
"
1712237354.30379,+052.031,+088.589,-018.049,-00.2132,+00.2502,-00.3868,+09.816,-00.025,+00.045,-00.002276,-00.096400,-00.014098,"$VNYMR,+052.031,+088.589,-018.049,-00.2132,+00.2502,-00.3868,+09.816,-00.025,+00.045,-00.002276,-00.096400,-00.014098*61
"
1712237354.3257675,+052.996,+088.449,-017.085,-00.2095,+00.2714,-00.3975,+09.823,-00.047,+00.014,-00.002262,-00.097054,-00.013659,"$VNYMR,+052.996,+088.449,-017.085,-00.2095,+00.2714,-00.3975,+09.823,-00.047,+00.014,-00.002262,-00.097054,-00.013659*68
"
1712237354.358491,+053.741,+088.314,-016.341,-00.2062,+00.2689,-00.3960,+09.792,-00.028,+00.007,-00.001334,-00.096948,-00.014268,"$VNYMR,+053.741,+088.314,-016.341,-00.2062,+00.2689,-00.3960,+09.792,-00.028,+00.007,-00.001334,-00.096948,-00.014268*6A
"
1712237354.3758996,+054.390,+088.180,-015.696,-00.2066,+00.2477,-00.3931,+09.801,+00.017,-00.042,-00.002762,-00.093248,-00.012621,"$VNYMR,+054.390,+088.180,-015.696,-00.2066,+00.2477,-00.3931,+09.801,+00.017,-00.042,-00.002762,-00.093248,-00.012621*68
"
1712237354.4028366,+055.035,+088.048,-015.056,-00.2109,+00.2537,-00.3787,+09.725,+00.036,-00.109,-00.003884,-00.091776,-00.008804,"$VNYMR,+055.035,+088.048,-015.056,-00.2109,+00.2537,-00.3787,+09.725,+00.036,-00.109,-00.003884,-00.091776,-00.008804*6E
"
1712237354.4275153,+055.634,+087.928,-014.462,-00.2078,+00.2465,-00.3958,+09.738,+00.047,-00.134,-00.005353,-00.080576,-00.006303,"$VNYMR,+055.634,+087.928,-014.462,-00.2078,+00.2465,-00.3958,+09.738,+00.047,-00.134,-00.005353,-00.080576,-00.006303*65
"
1712237354.4510255,+056.202,+087.827,-013.903,-00.2110,+00.2513,-00.3800,+09.696,+00.012,-00.157,-00.006797,-00.069819,-00.001582,"$VNYMR,+056.202,+087.827,-013.903,-00.2110,+00.2513,-00.3800,+09.696,+00.012,-00.157,-00.006797,-00.069819,-00.001582*63
"
1712237354.478182,+056.746,+087.741,-013.371,-00.2109,+00.2584,-00.3854,+09.703,+00.015,-00.160,-00.007395,-00.055171,+00.000907,"$VNYMR,+056.746,+087.741,-013.371,-00.2109,+00.2584,-00.3854,+09.703,+00.015,-00.160,-00.007395,-00.055171,+00.000907*66
"
1712237354.501063,+057.228,+087.673,-012.901,-00.2074,+00.2666,-00.3894,+09.714,+00.003,-00.171,-00.009654,-00.043428,+00.002671,"$VNYMR,+057.228,+087.673,-012.901,-00.2074,+00.2666,-00.3894,+09.714,+00.003,-00.171,-00.009654,-00.043428,+00.002671*6B
"
1712237354.5273933,+057.651,+087.618,-012.495,-00.2099,+00.2489,-00.3866,+09.703,-00.022,-00.107,-00.010952,-00.033186,+00.003248,"$VNYMR,+057.651,+087.618,-012.495,-00.2099,+00.2489,-00.3866,+09.703,-00.022,-00.107,-00.010952,-00.033186,+00.003248*6B
"
1712237354.5510707,+057.986,+087.579,-012.178,-00.2109,+00.2548,-00.3761,+09.788,-00.031,-00.066,-00.011409,-00.026711,+00.003082,"$VNYMR,+057.986,+087.579,-012.178,-00.2109,+00.2548,-00.3761,+09.788,-00.031,-00.066,-00.011409,-00.026711,+00.003082*6D
"
1712237354.5756717,+058.310,+087.546,-011.873,-00.2066,+00.2477,-00.3864,+09.740,-00.017,-00.030,-00.012432,-00.022747,+00.004134,"$VNYMR,+058.310,+087.546,-011.873,-00.2066,+00.2477,-00.3864,+09.740,-00.017,-00.030,-00.012432,-00.022747,+00.004134*61
"
1712237354.6007142,+058.591,+087.523,-011.610,-00.2122,+00.2478,-00.3854,+09.760,+00.013,-00.042,-00.013063,-00.018287,+00.004981,"$VNYMR,+058.591,+087.523,-011.610,-00.2122,+00.2478,-00.3854,+09.760,+00.013,-00.042,-00.013063,-00.018287,+00.004981*69
"
1712237354.6282966,+058.917,+087.504,-011.306,-00.2109,+00.2548,-00.3814,+09.762,+00.027,+00.008,-00.014534,-00.019394,+00.008634,"$VNYMR,+058.917,+087.504,-011.306,-00.2109,+00.2548,-00.3814,+09.762,+00.027,+00.008,-00.014534,-00.019394,+00.008634*61
"
1712237354.651016,+059.340,+087.485,-010.903,-00.2087,+00.2560,-00.3893,+09.787,+00.027,-00.042,-00.012082,-00.011930,+00.010710,"$VNYMR,+059.340,+087.485,-010.903,-00.2087,+00.2560,-00.3893,+09.787,+00.027,-00.042,-00.012082,-00.011930,+00.010710*63
"
1712237354.6755896,+059.770,+087.477,-010.495,-00.2054,+00.2512,-00.3851,+09.713,+00.005,-00.074,-00.014406,-00.006598,+00.013204,"$VNYMR,+059.770,+087.477,-010.495,-00.2054,+00.2512,-00.3851,+09.713,+00.005,-00.074,-00.014406,-00.006598,+00.013204*63
"
1712237354.7009056,+060.260,+087.481,-010.028,-00.2099,+00.2513,-00.3706,+09.788,+00.016,-00.111,-00.015079,+00.003994,+00.016591,"$VNYMR,+060.260,+087.481,-010.028,-00.2099,+00.2513,-00.3706,+09.788,+00.016,-00.111,-00.015079,+00.003994,+00.016591*69
"
1712237354.7255652,+060.730,+087.499,-009.582,-00.2078,+00.2453,-00.3945,+09.681,+00.002,-00.162,-00.014711,+00.014054,+00.017168,"$VNYMR,+060.730,+087.499,-009.582,-00.2078,+00.2453,-00.3945,+09.681,+00.002,-00.162,-00.014711,+00.014054,+00.017168*6F
"
1712237354.7507198,+061.158,+087.538,-009.178,-00.2110,+00.2489,-00.3787,+09.706,-00.026,-00.190,-00.015541,+00.026941,+00.018245,"$VNYMR,+061.158,+087.538,-009.178,-00.2110,+00.2489,-00.3787,+09.706,-00.026,-00.190,-00.015541,+00.026941,+00.018245*6F
"
1712237354.7764647,+061.535,+087.591,-008.828,-00.2086,+00.2595,-00.3800,+09.688,-00.004,-00.153,-00.015319,+00.039146,+00.017825,"$VNYMR,+061.535,+087.591,-008.828,-00.2086,+00.2595,-00.3800,+09.688,-00.004,-00.153,-00.015319,+00.039146,+00.017825*6D
"
1712237354.800825,+061.900,+087.664,-008.490,-00.2064,+00.2595,-00.3879,+09.708,-00.011,-00.145,-00.017553,+00.051390,+00.018815,"$VNYMR,+061.900,+087.664,-008.490,-00.2064,+00.2595,-00.3879,+09.708,-00.011,-00.145,-00.017553,+00.051390,+00.018815*68
"
1712237354.8256185,+062.312,+087.749,-008.106,-00.2076,+00.2560,-00.3879,+09.733,+00.020,-00.102,-00.016662,+00.059868,+00.021414,"$VNYMR,+062.312,+087.749,-008.106,-00.2076,+00.2560,-00.3879,+09.733,+00.020,-00.102,-00.016662,+00.059868,+00.021414*63
"
1712237354.8507607,+062.764,+087.848,-007.679,-00.2077,+00.2477,-00.3745,+09.755,+00.022,-00.034,-00.016062,+00.066779,+00.023448,"$VNYMR,+062.764,+087.848,-007.679,-00.2077,+00.2477,-00.3745,+09.755,+00.022,-00.034,-00.016062,+00.066779,+00.023448*66
"
1712237354.87581,+063.351,+087.948,-007.119,-00.2087,+00.2560,-00.3893,+09.788,+00.006,-00.019,-00.015054,+00.070696,+00.024581,"$VNYMR,+063.351,+087.948,-007.119,-00.2087,+00.2560,-00.3893,+09.788,+00.006,-00.019,-00.015054,+00.070696,+00.024581*62
"
1712237354.9026282,+064.059,+088.055,-006.438,-00.2044,+00.2488,-00.3810,+09.787,+00.002,+00.004,-00.014420,+00.071427,+00.026156,"$VNYMR,+064.059,+088.055,-006.438,-00.2044,+00.2488,-00.3810,+09.787,+00.002,+00.004,-00.014420,+00.071427,+00.026156*62
"
1712237354.9284139,+064.866,+088.163,-005.654,-00.2097,+00.2619,-00.3854,+09.794,-00.008,-00.006,-00.013078,+00.074091,+00.026417,"$VNYMR,+064.866,+088.163,-005.654,-00.2097,+00.2619,-00.3854,+09.794,-00.008,-00.006,-00.013078,+00.074091,+00.026417*65
"
1712237354.9529054,+065.792,+088.278,-004.750,-00.2042,+00.2571,-00.3931,+09.783,-00.015,-00.016,-00.012247,+00.076045,+00.027505,"$VNYMR,+065.792,+088.278,-004.750,-00.2042,+00.2571,-00.3931,+09.783,-00.015,-00.016,-00.012247,+00.076045,+00.027505*66
"
1712237354.9757075,+066.812,+088.395,-003.751,-00.2065,+00.2524,-00.3918,+09.741,-00.014,-00.066,-00.012099,+00.083293,+00.026656,"$VNYMR,+066.812,+088.395,-003.751,-00.2065,+00.2524,-00.3918,+09.741,-00.014,-00.066,-00.012099,+00.083293,+00.026656*66
"
1712237355.0006435,+067.968,+088.515,-002.617,-00.2075,+00.2607,-00.3826,+09.769,-00.020,-00.113,-00.012563,+00.088769,+00.027316,"$VNYMR,+067.968,+088.515,-002.617,-00.2075,+00.2607,-00.3826,+09.769,-00.020,-00.113,-00.012563,+00.088769,+00.027316*6D
"
1712237355.026427,+069.284,+088.652,-001.321,-00.2065,+00.2524,-00.3945,+09.737,-00.021,-00.092,-00.011360,+00.096628,+00.026212,"$VNYMR,+069.284,+088.652,-001.321,-00.2065,+00.2524,-00.3945,+09.737,-00.021,-00.092,-00.011360,+00.096628,+00.026212*65
"
1712237355.0507572,+070.860,+088.800,+000.239,-00.2077,+00.2489,-00.3852,+09.790,-00.004,-00.084,-00.010507,+00.106732,+00.025660,"$VNYMR,+070.860,+088.800,+000.239,-00.2077,+00.2489,-00.3852,+09.790,-00.004,-00.084,-00.010507,+00.106732,+00.025660*62
"
1712237355.0764928,+072.936,+088.961,+002.298,-00.2074,+00.2666,-00.3907,+09.763,-00.005,-00.099,-00.009866,+00.113846,+00.027006,"$VNYMR,+072.936,+088.961,+002.298,-00.2074,+00.2666,-00.3907,+09.763,-00.005,-00.099,-00.009866,+00.113846,+00.027006*63
"
1712237355.1015658,+075.838,+089.126,+005.182,-00.2063,+00.2630,-00.3986,+09.780,-00.010,-00.009,-00.008599,+00.119836,+00.026521,"$VNYMR,+075.838,+089.126,+005.182,-00.2063,+00.2630,-00.3986,+09.780,-00.010,-00.009,-00.008599,+00.119836,+00.026521*62
"
1712237355.1267433,+080.230,+089.293,+009.557,-00.2075,+00.2583,-00.4013,+09.816,+00.000,+00.007,-00.008806,+00.119523,+00.027696,"$VNYMR,+080.230,+089.293,+009.557,-00.2075,+00.2583,-00.4013,+09.816,+00.000,+00.007,-00.008806,+00.119523,+00.027696*6A
"
1712237355.150863,+087.040,+089.450,+016.351,-00.2053,+00.2571,-00.3918,+09.832,+00.009,+00.051,-00.007232,+00.120876,+00.027292,"$VNYMR,+087.040,+089.450,+016.351,-00.2053,+00.2571,-00.3918,+09.832,+00.009,+00.051,-00.007232,+00.120876,+00.027292*6A
"
1712237355.175506,+099.129,+089.597,+028.426,-00.2054,+00.2536,-00.3998,+09.838,-00.017,+00.053,-00.006448,+00.115363,+00.027209,"$VNYMR,+099.129,+089.597,+028.426,-00.2054,+00.2536,-00.3998,+09.838,-00.017,+00.053,-00.006448,+00.115363,+00.027209*67
"
1712237355.2005153,+120.596,+089.703,+049.881,-00.2066,+00.2512,-00.3918,+09.819,-00.044,+00.037,-00.007127,+00.113247,+00.023968,"$VNYMR,+120.596,+089.703,+049.881,-00.2066,+00.2512,-00.3918,+09.819,-00.044,+00.037,-00.007127,+00.113247,+00.023968*61
"
1712237355.2266786,+153.969,+089.738,+083.245,-00.2052,+00.2618,-00.3999,+09.834,-00.030,+00.021,-00.004468,+00.108397,+00.023639,"$VNYMR,+153.969,+089.738,+083.245,-00.2052,+00.2618,-00.3999,+09.834,-00.030,+00.021,-00.004468,+00.108397,+00.023639*69
"
1712237355.2519605,-175.502,+089.683,+113.765,-00.2040,+00.2665,-00.4025,+09.810,-00.054,+00.028,-00.002780,+00.108424,+00.021149,"$VNYMR,-175.502,+089.683,+113.765,-00.2040,+00.2665,-00.4025,+09.810,-00.054,+00.028,-00.002780,+00.108424,+00.021149*67
"
1712237355.27673,-157.254,+089.574,+132.007,-00.2064,+00.2583,-00.4066,+09.816,-00.027,-00.012,-00.002904,+00.108924,+00.019714,"$VNYMR,-157.254,+089.574,+132.007,-00.2064,+00.2583,-00.4066,+09.816,-00.027,-00.012,-00.002904,+00.108924,+00.019714*65
"
1712237355.30058,-146.686,+089.436,+142.568,-00.2086,+00.2595,-00.3960,+09.782,-00.033,-00.015,-00.002725,+00.111144,+00.018245,"$VNYMR,-146.686,+089.436,+142.568,-00.2086,+00.2595,-00.3960,+09.782,-00.033,-00.015,-00.002725,+00.111144,+00.018245*6A
"
1712237355.3268087,-140.301,+089.286,+148.949,-00.2053,+00.2595,-00.4119,+09.799,-00.011,-00.025,-00.001807,+00.115334,+00.018210,"$VNYMR,-140.301,+089.286,+148.949,-00.2053,+00.2595,-00.4119,+09.799,-00.011,-00.025,-00.001807,+00.115334,+00.018210*63
"
1712237355.3507626,-135.989,+089.125,+153.258,-00.2063,+00.2619,-00.4119,+09.821,-00.004,+00.001,-00.001724,+00.118234,+00.018280,"$VNYMR,-135.989,+089.125,+153.258,-00.2063,+00.2619,-00.4119,+09.821,-00.004,+00.001,-00.001724,+00.118234,+00.018280*67
"
1712237355.3765912,-133.060,+088.961,+156.183,-00.2073,+00.2678,-00.4107,+09.790,-00.009,+00.031,-00.000474,+00.118596,+00.018825,"$VNYMR,-133.060,+088.961,+156.183,-00.2073,+00.2678,-00.4107,+09.790,-00.009,+00.031,-00.000474,+00.118596,+00.018825*69
"
1712237355.4017768,-130.836,+088.792,+158.404,-00.2041,+00.2630,-00.4185,+09.857,-00.035,+00.050,-00.000297,+00.116535,+00.017810,"$VNYMR,-130.836,+088.792,+158.404,-00.2041,+00.2630,-00.4185,+09.857,-00.035,+00.050,-00.000297,+00.116535,+00.017810*69
"
1712237355.426462,-129.210,+088.627,+160.030,-00.2041,+00.2642,-00.4199,+09.858,-00.051,+00.083,+00.001390,+00.111383,+00.017347,"$VNYMR,-129.210,+088.627,+160.030,-00.2041,+00.2642,-00.4199,+09.858,-00.051,+00.083,+00.001390,+00.111383,+00.017347*67
"
1712237355.456236,-127.973,+088.474,+161.267,-00.2053,+00.2571,-00.4105,+09.871,-00.048,+00.151,+00.001989,+00.104575,+00.013728,"$VNYMR,-127.973,+088.474,+161.267,-00.2053,+00.2571,-00.4105,+09.871,-00.048,+00.151,+00.001989,+00.104575,+00.013728*6A
"
1712237355.47678,-126.993,+088.337,+162.250,-00.2042,+00.2583,-00.4238,+09.850,-00.040,+00.133,+00.002414,+00.093719,+00.010717,"$VNYMR,-126.993,+088.337,+162.250,-00.2042,+00.2583,-00.4238,+09.850,-00.040,+00.133,+00.002414,+00.093719,+00.010717*6F
"
1712237355.5011833,-126.099,+088.212,+163.149,-00.2029,+00.2665,-00.4172,+09.897,-00.069,+00.153,+00.005655,+00.085949,+00.007804,"$VNYMR,-126.099,+088.212,+163.149,-00.2029,+00.2665,-00.4172,+09.897,-00.069,+00.153,+00.005655,+00.085949,+00.007804*6A
"
1712237355.5289369,-125.338,+088.098,+163.917,-00.2051,+00.2701,-00.4146,+09.850,-00.035,+00.141,+00.006375,+00.076789,+00.005739,"$VNYMR,-125.338,+088.098,+163.917,-00.2051,+00.2701,-00.4146,+09.850,-00.035,+00.141,+00.006375,+00.076789,+00.005739*61
"
1712237355.554692,-124.630,+087.997,+164.635,-00.2040,+00.2689,-00.4239,+09.809,-00.041,+00.084,+00.007527,+00.072244,+00.002617,"$VNYMR,-124.630,+087.997,+164.635,-00.2040,+00.2689,-00.4239,+09.809,-00.041,+00.084,+00.007527,+00.072244,+00.002617*6B
"
1712237355.5770955,-124.003,+087.901,+165.271,-00.1998,+00.2582,-00.4209,+09.856,-00.036,+00.062,+00.006149,+00.067563,+00.002257,"$VNYMR,-124.003,+087.901,+165.271,-00.1998,+00.2582,-00.4209,+09.856,-00.036,+00.062,+00.006149,+00.067563,+00.002257*6A
"
1712237355.6024134,-123.440,+087.811,+165.842,-00.2064,+00.2607,-00.4119,+09.793,+00.001,+00.050,+00.007858,+00.063539,+00.001881,"$VNYMR,-123.440,+087.811,+165.842,-00.2064,+00.2607,-00.4119,+09.793,+00.001,+00.050,+00.007858,+00.063539,+00.001881*65
"
1712237355.6286297,-122.946,+087.725,+166.348,-00.2008,+00.2606,-00.4290,+09.831,-00.018,+00.041,+00.008197,+00.061670,+00.001042,"$VNYMR,-122.946,+087.725,+166.348,-00.2008,+00.2606,-00.4290,+09.831,-00.018,+00.041,+00.008197,+00.061670,+00.001042*6B
"
1712237355.6545913,-122.514,+087.644,+166.793,-00.2043,+00.2547,-00.4184,+09.800,-00.040,+00.028,+00.008032,+00.058080,+00.002486,"$VNYMR,-122.514,+087.644,+166.793,-00.2043,+00.2547,-00.4184,+09.800,-00.040,+00.028,+00.008032,+00.058080,+00.002486*69
"
1712237355.67682,-122.083,+087.564,+167.239,-00.2061,+00.2725,-00.4281,+09.833,-00.035,+00.093,+00.009001,+00.052824,+00.000519,"$VNYMR,-122.083,+087.564,+167.239,-00.2061,+00.2725,-00.4281,+09.833,-00.035,+00.093,+00.009001,+00.052824,+00.000519*6D
"
1712237355.7048283,-121.650,+087.497,+167.683,-00.2030,+00.2654,-00.4292,+09.877,-00.065,+00.120,+00.009821,+00.047072,-00.003960,"$VNYMR,-121.650,+087.497,+167.683,-00.2030,+00.2654,-00.4292,+09.877,-00.065,+00.120,+00.009821,+00.047072,-00.003960*61
"
1712237355.7268775,-121.239,+087.443,+168.110,-00.2018,+00.2701,-00.4318,+09.905,-00.066,+00.158,+00.010816,+00.038125,-00.005189,"$VNYMR,-121.239,+087.443,+168.110,-00.2018,+00.2701,-00.4318,+09.905,-00.066,+00.158,+00.010816,+00.038125,-00.005189*6F
"
1712237355.7541432,-120.795,+087.403,+168.567,-00.2076,+00.2560,-00.4159,+09.882,-00.037,+00.214,+00.011454,+00.026840,-00.009678,"$VNYMR,-120.795,+087.403,+168.567,-00.2076,+00.2560,-00.4159,+09.882,-00.037,+00.214,+00.011454,+00.026840,-00.009678*6D
"
1712237355.7764297,-120.377,+087.381,+169.004,-00.2042,+00.2583,-00.4305,+09.860,-00.058,+00.208,+00.011722,+00.010509,-00.011927,"$VNYMR,-120.377,+087.381,+169.004,-00.2042,+00.2583,-00.4305,+09.860,-00.058,+00.208,+00.011722,+00.010509,-00.011927*6B
"
1712237355.8037224,-119.976,+087.380,+169.424,-00.2063,+00.2654,-00.4200,+09.916,-00.022,+00.178,+00.012275,+00.000227,-00.013569,"$VNYMR,-119.976,+087.380,+169.424,-00.2063,+00.2654,-00.4200,+09.916,-00.022,+00.178,+00.012275,+00.000227,-00.013569*60
"
1712237355.8267126,-119.586,+087.395,+169.835,-00.2073,+00.2702,-00.4254,+09.875,-00.049,+00.154,+00.014118,-00.009879,-00.014878,"$VNYMR,-119.586,+087.395,+169.835,-00.2073,+00.2702,-00.4254,+09.875,-00.049,+00.154,+00.014118,-00.009879,-00.014878*64
"
1712237355.8515007,-119.209,+087.420,+170.232,-00.2062,+00.2701,-00.4267,+09.842,-00.024,+00.129,+00.013714,-00.017188,-00.015572,"$VNYMR,-119.209,+087.420,+170.232,-00.2062,+00.2701,-00.4267,+09.842,-00.024,+00.129,+00.013714,-00.017188,-00.015572*6D
"
1712237355.8789933,-118.841,+087.457,+170.622,-00.2042,+00.2583,-00.4331,+09.850,-00.019,+00.086,+00.013296,-00.023863,-00.015295,"$VNYMR,-118.841,+087.457,+170.622,-00.2042,+00.2583,-00.4331,+09.850,-00.019,+00.086,+00.013296,-00.023863,-00.015295*64
"
1712237355.9017043,-118.458,+087.495,+171.025,-00.2053,+00.2583,-00.4199,+09.842,-00.009,+00.111,+00.011455,-00.025766,-00.016689,"$VNYMR,-118.458,+087.495,+171.025,-00.2053,+00.2583,-00.4199,+09.842,-00.009,+00.111,+00.011455,-00.025766,-00.016689*6E
"
1712237355.9267106,-118.054,+087.540,+171.450,-00.2054,+00.2559,-00.4292,+09.833,-00.035,+00.062,+00.011799,-00.028672,-00.017583,"$VNYMR,-118.054,+087.540,+171.450,-00.2054,+00.2559,-00.4292,+09.833,-00.035,+00.062,+00.011799,-00.028672,-00.017583*6F
"
1712237355.953178,-117.610,+087.593,+171.915,-00.2076,+00.2536,-00.4172,+09.827,-00.042,+00.071,+00.013431,-00.034252,-00.019790,"$VNYMR,-117.610,+087.593,+171.915,-00.2076,+00.2536,-00.4172,+09.827,-00.042,+00.071,+00.013431,-00.034252,-00.019790*61
"
1712237355.9764528,-117.113,+087.651,+172.430,-00.2063,+00.2630,-00.4186,+09.813,-00.022,+00.090,+00.012242,-00.040827,-00.021159,"$VNYMR,-117.113,+087.651,+172.430,-00.2063,+00.2630,-00.4186,+09.813,-00.022,+00.090,+00.012242,-00.040827,-00.021159*65
"
1712237356.0017884,-116.570,+087.717,+172.995,-00.2051,+00.2713,-00.4333,+09.887,-00.044,+00.148,+00.013867,-00.045247,-00.022154,"$VNYMR,-116.570,+087.717,+172.995,-00.2051,+00.2713,-00.4333,+09.887,-00.044,+00.148,+00.013867,-00.045247,-00.022154*6B
"
1712237356.0265958,-116.022,+087.798,+173.564,-00.2053,+00.2571,-00.4292,+09.900,-00.041,+00.161,+00.011946,-00.055283,-00.022125,"$VNYMR,-116.022,+087.798,+173.564,-00.2053,+00.2571,-00.4292,+09.900,-00.041,+00.161,+00.011946,-00.055283,-00.022125*6C
"
1712237356.0517457,-115.433,+087.895,+174.173,-00.2054,+00.2559,-00.4158,+09.892,-00.032,+00.180,+00.011511,-00.068644,-00.023656,"$VNYMR,-115.433,+087.895,+174.173,-00.2054,+00.2559,-00.4158,+09.892,-00.032,+00.180,+00.011511,-00.068644,-00.023656*68
"
1712237356.0765734,-114.802,+088.006,+174.827,-00.2054,+00.2512,-00.4251,+09.890,-00.019,+00.197,+00.012184,-00.078769,-00.024232,"$VNYMR,-114.802,+088.006,+174.827,-00.2054,+00.2512,-00.4251,+09.890,-00.019,+00.197,+00.012184,-00.078769,-00.024232*6F
"
1712237356.1018298,-114.104,+088.132,+175.548,-00.2065,+00.2560,-00.4185,+09.859,-00.036,+00.136,+00.012244,-00.088468,-00.025274,"$VNYMR,-114.104,+088.132,+175.548,-00.2065,+00.2560,-00.4185,+09.859,-00.036,+00.136,+00.012244,-00.088468,-00.025274*6C
"
1712237356.1282568,-113.283,+088.269,+176.390,-00.2063,+00.2666,-00.4253,+09.882,-00.004,+00.088,+00.012987,-00.096021,-00.025789,"$VNYMR,-113.283,+088.269,+176.390,-00.2063,+00.2666,-00.4253,+09.882,-00.004,+00.088,+00.012987,-00.096021,-00.025789*67
"
1712237356.154802,-112.292,+088.411,+177.399,-00.2075,+00.2607,-00.4253,+09.822,-00.007,+00.047,+00.012490,-00.099096,-00.027379,"$VNYMR,-112.292,+088.411,+177.399,-00.2075,+00.2607,-00.4253,+09.822,-00.007,+00.047,+00.012490,-00.099096,-00.027379*6C
"
1712237356.1787605,-111.089,+088.557,+178.622,-00.2064,+00.2595,-00.4186,+09.801,-00.011,+00.028,+00.011415,-00.099407,-00.027142,"$VNYMR,-111.089,+088.557,+178.622,-00.2064,+00.2595,-00.4186,+09.801,-00.011,+00.028,+00.011415,-00.099407,-00.027142*6A
"
1712237356.2017746,-109.650,+088.706,-179.920,-00.2066,+00.2512,-00.4078,+09.792,-00.029,+00.035,+00.011033,-00.100448,-00.026970,"$VNYMR,-109.650,+088.706,-179.920,-00.2066,+00.2512,-00.4078,+09.792,-00.029,+00.035,+00.011033,-00.100448,-00.026970*60
"
1712237356.228734,-107.822,+088.852,-178.075,-00.2065,+00.2524,-00.4158,+09.843,-00.019,-00.007,+00.010358,-00.102159,-00.026268,"$VNYMR,-107.822,+088.852,-178.075,-00.2065,+00.2524,-00.4158,+09.843,-00.019,-00.007,+00.010358,-00.102159,-00.026268*6B
"
1712237356.2534282,-105.567,+088.998,-175.802,-00.2065,+00.2536,-00.4092,+09.829,+00.023,+00.003,+00.008280,-00.101414,-00.024781,"$VNYMR,-105.567,+088.998,-175.802,-00.2065,+00.2536,-00.4092,+09.829,+00.023,+00.003,+00.008280,-00.101414,-00.024781*60
"
1712237356.2767758,-102.671,+089.141,-172.893,-00.2063,+00.2619,-00.4146,+09.842,-00.001,+00.050,+00.007526,-00.103531,-00.025072,"$VNYMR,-102.671,+089.141,-172.893,-00.2063,+00.2619,-00.4146,+09.842,-00.001,+00.050,+00.007526,-00.103531,-00.025072*66
"
1712237356.3041253,-098.561,+089.288,-168.769,-00.2063,+00.2654,-00.4227,+09.845,-00.013,+00.093,+00.006642,-00.106889,-00.023945,"$VNYMR,-098.561,+089.288,-168.769,-00.2063,+00.2654,-00.4227,+09.845,-00.013,+00.093,+00.006642,-00.106889,-00.023945*67
"
1712237356.3266182,-092.300,+089.434,-162.495,-00.2087,+00.2560,-00.4160,+09.860,-00.014,+00.053,+00.007147,-00.113187,-00.023599,"$VNYMR,-092.300,+089.434,-162.495,-00.2087,+00.2560,-00.4160,+09.860,-00.014,+00.053,+00.007147,-00.113187,-00.023599*68
"
1712237356.3521302,-081.780,+089.574,-151.961,-00.2088,+00.2501,-00.3986,+09.857,-00.032,+00.090,+00.007770,-00.117187,-00.022476,"$VNYMR,-081.780,+089.574,-151.961,-00.2088,+00.2501,-00.3986,+09.857,-00.032,+00.090,+00.007770,-00.117187,-00.022476*62
"
1712237356.3790736,-060.963,+089.694,-131.131,-00.2088,+00.2477,-00.4119,+09.837,-00.026,+00.104,+00.007066,-00.124836,-00.023495,"$VNYMR,-060.963,+089.694,-131.131,-00.2088,+00.2477,-00.4119,+09.837,-00.026,+00.104,+00.007066,-00.124836,-00.023495*61
"
1712237356.4034855,-024.873,+089.736,-095.029,-00.2099,+00.2489,-00.4000,+09.895,+00.196,-00.168,+00.017021,-00.124342,-00.023605,"$VNYMR,-024.873,+089.736,-095.029,-00.2099,+00.2489,-00.4000,+09.895,+00.196,-00.168,+00.017021,-00.124342,-00.023605*6E
"
1712237356.4264934,+006.802,+089.655,-063.223,-00.2097,+00.2596,-00.4027,+09.464,+02.055,-03.140,+00.142621,-00.108430,-00.021197,"$VNYMR,+006.802,+089.655,-063.223,-00.2097,+00.2596,-00.4027,+09.464,+02.055,-03.140,+00.142621,-00.108430,-00.021197*6D
"
1712237356.4538708,+015.747,+089.648,-054.119,-00.2087,+00.2572,-00.4053,+08.995,+00.048,-00.367,+00.081655,-00.000303,+00.038840,"$VNYMR,+015.747,+089.648,-054.119,-00.2087,+00.2572,-00.4053,+08.995,+00.048,-00.367,+00.081655,-00.000303,+00.038840*6D
"
1712237356.4768715,+021.512,+089.691,-048.306,-00.2099,+00.2501,-00.4066,+10.993,-00.110,-00.364,+00.024756,-00.031453,+00.024821,"$VNYMR,+021.512,+089.691,-048.306,-00.2099,+00.2501,-00.4066,+10.993,-00.110,-00.364,+00.024756,-00.031453,+00.024821*61
"
1712237356.5013916,+034.297,+089.590,-035.490,-00.2110,+00.2489,-00.3960,+09.734,-01.081,+01.793,+00.018010,-00.126677,-00.024181,"$VNYMR,+034.297,+089.590,-035.490,-00.2110,+00.2489,-00.3960,+09.734,-01.081,+01.793,+00.018010,-00.126677,-00.024181*62
"
1712237356.5265443,+040.340,+089.335,-029.409,-00.2075,+00.2583,-00.4040,+10.369,-00.776,+00.904,+00.031642,-00.205801,-00.090702,"$VNYMR,+040.340,+089.335,-029.409,-00.2075,+00.2583,-00.4040,+10.369,-00.776,+00.904,+00.031642,-00.205801,-00.090702*65
"
1712237356.5518305,+042.216,+088.907,-027.469,-00.2100,+00.2477,-00.3959,+10.369,-00.596,+01.501,+00.047708,-00.308519,-00.140759,"$VNYMR,+042.216,+088.907,-027.469,-00.2100,+00.2477,-00.3959,+10.369,-00.596,+01.501,+00.047708,-00.308519,-00.140759*68
"
1712237356.5782037,+043.383,+088.379,-026.234,-00.2152,+00.2608,-00.3870,+10.184,+00.173,+00.155,+00.048004,-00.352961,-00.151911,"$VNYMR,+043.383,+088.379,-026.234,-00.2152,+00.2608,-00.3870,+10.184,+00.173,+00.155,+00.048004,-00.352961,-00.151911*69
"
1712237356.604333,+044.549,+087.842,-024.999,-00.2076,+00.2524,-00.3932,+10.027,+00.593,-00.324,+00.049380,-00.341257,-00.122766,"$VNYMR,+044.549,+087.842,-024.999,-00.2076,+00.2524,-00.3932,+10.027,+00.593,-00.324,+00.049380,-00.341257,-00.122766*69
"
1712237356.626638,+046.329,+087.379,-023.162,-00.2078,+00.2441,-00.3905,+08.933,+00.935,-01.199,+00.035698,-00.290277,-00.058370,"$VNYMR,+046.329,+087.379,-023.162,-00.2078,+00.2441,-00.3905,+08.933,+00.935,-01.199,+00.035698,-00.290277,-00.058370*6C
"
1712237356.651791,+048.379,+087.057,-021.070,-00.2111,+00.2477,-00.3773,+08.982,+00.713,-01.579,+00.027776,-00.200427,+00.004282,"$VNYMR,+048.379,+087.057,-021.070,-00.2111,+00.2477,-00.3773,+08.982,+00.713,-01.579,+00.027776,-00.200427,+00.004282*6D
"
1712237356.6764028,+050.360,+086.914,-019.068,-00.2078,+00.2453,-00.3878,+08.725,+00.427,-01.670,+00.014501,-00.101745,+00.050432,"$VNYMR,+050.360,+086.914,-019.068,-00.2078,+00.2453,-00.3878,+08.725,+00.427,-01.670,+00.014501,-00.101745,+00.050432*6B
"
1712237356.7016232,+052.204,+086.900,-017.217,-00.2089,+00.2442,-00.3812,+09.286,-00.144,-01.395,+00.001009,+00.019735,+00.067483,"$VNYMR,+052.204,+086.900,-017.217,-00.2089,+00.2442,-00.3812,+09.286,-00.144,-01.395,+00.001009,+00.019735,+00.067483*62
"
1712237356.7269652,+053.091,+087.004,-016.332,-00.2120,+00.2572,-00.3801,+09.715,-00.626,-00.468,-00.000544,+00.090314,+00.038315,"$VNYMR,+053.091,+087.004,-016.332,-00.2120,+00.2572,-00.3801,+09.715,-00.626,-00.468,-00.000544,+00.090314,+00.038315*63
"
1712237356.7514355,+052.693,+087.144,-016.731,-00.2088,+00.2524,-00.3879,+10.052,-00.612,+00.183,-00.000172,+00.094052,-00.004229,"$VNYMR,+052.693,+087.144,-016.731,-00.2088,+00.2524,-00.3879,+10.052,-00.612,+00.183,-00.000172,+00.094052,-00.004229*65
"
1712237356.7761626,+051.141,+087.226,-018.277,-00.2076,+00.2548,-00.3892,+10.272,-00.732,+01.025,+00.009012,+00.047672,-00.053926,"$VNYMR,+051.141,+087.226,-018.277,-00.2076,+00.2548,-00.3892,+10.272,-00.732,+01.025,+00.009012,+00.047672,-00.053926*65
"
1712237356.803983,+049.106,+087.193,-020.290,-00.2100,+00.2454,-00.3759,+10.314,-00.107,+01.339,+00.017751,-00.030943,-00.080677,"$VNYMR,+049.106,+087.193,-020.290,-00.2100,+00.2454,-00.3759,+10.314,-00.107,+01.339,+00.017751,-00.030943,-00.080677*6A
"
1712237356.8263984,+047.828,+087.029,-021.538,-00.2133,+00.2443,-00.3961,+10.253,+00.089,+01.465,+00.024072,-00.131591,-00.080980,"$VNYMR,+047.828,+087.029,-021.538,-00.2133,+00.2443,-00.3961,+10.253,+00.089,+01.465,+00.024072,-00.131591,-00.080980*69
"
1712237356.851388,+047.932,+086.750,-021.398,-00.2135,+00.2383,-00.3773,+10.310,+00.553,+01.021,+00.027831,-00.216213,-00.054953,"$VNYMR,+047.932,+086.750,-021.398,-00.2135,+00.2383,-00.3773,+10.310,+00.553,+01.021,+00.027831,-00.216213,-00.054953*67
"
1712237356.876343,+049.280,+086.415,-020.016,-00.2121,+00.2513,-00.3734,+10.145,+00.570,+00.401,+00.026222,-00.255854,-00.012195,"$VNYMR,+049.280,+086.415,-020.016,-00.2121,+00.2513,-00.3734,+10.145,+00.570,+00.401,+00.026222,-00.255854,-00.012195*67
"
1712237356.9013813,+051.416,+086.061,-017.853,-00.2088,+00.2489,-00.3786,+09.706,+00.417,-00.624,+00.023140,-00.248687,+00.026925,"$VNYMR,+051.416,+086.061,-017.853,-00.2088,+00.2489,-00.3786,+09.706,+00.417,-00.624,+00.023140,-00.248687,+00.026925*62
"
1712237356.9262657,+053.489,+085.786,-015.760,-00.2100,+00.2442,-00.3812,+09.111,+00.173,-01.409,+00.014872,-00.183094,+00.052617,"$VNYMR,+053.489,+085.786,-015.760,-00.2100,+00.2442,-00.3812,+09.111,+00.173,-01.409,+00.014872,-00.183094,+00.052617*68
"
1712237356.9512835,+055.055,+085.653,-014.189,-00.2090,+00.2394,-00.3638,+08.596,-00.210,-01.743,+00.002370,-00.064603,+00.054228,"$VNYMR,+055.055,+085.653,-014.189,-00.2090,+00.2394,-00.3638,+08.596,-00.210,-01.743,+00.002370,-00.064603,+00.054228*67
"
1712237356.9794753,+055.804,+085.686,-013.449,-00.2100,+00.2442,-00.3786,+08.653,-00.451,-01.733,-00.007618,+00.062417,+00.034610,"$VNYMR,+055.804,+085.686,-013.449,-00.2100,+00.2442,-00.3786,+08.653,-00.451,-01.733,-00.007618,+00.062417,+00.034610*65
"
1712237357.001867,+055.585,+085.868,-013.690,-00.2110,+00.2513,-00.3694,+09.115,-00.428,-01.279,-00.016097,+00.166396,+00.008016,"$VNYMR,+055.585,+085.868,-013.690,-00.2110,+00.2513,-00.3694,+09.115,-00.428,-01.279,-00.016097,+00.166396,+00.008016*6B
"
1712237357.0293326,+054.348,+086.158,-014.954,-00.2120,+00.2549,-00.3748,+09.789,-00.334,-00.511,-00.017395,+00.231317,-00.016937,"$VNYMR,+054.348,+086.158,-014.954,-00.2120,+00.2549,-00.3748,+09.789,-00.334,-00.511,-00.017395,+00.231317,-00.016937*62
"
1712237357.0521996,+052.446,+086.476,-016.882,-00.2088,+00.2489,-00.3879,+10.235,+00.094,+00.430,-00.017013,+00.234948,-00.021905,"$VNYMR,+052.446,+086.476,-016.882,-00.2088,+00.2489,-00.3879,+10.235,+00.094,+00.430,-00.017013,+00.234948,-00.021905*63
"
1712237357.0790615,+050.641,+086.747,-018.711,-00.2089,+00.2430,-00.3825,+10.307,+00.316,+01.098,-00.015218,+00.176016,-00.005384,"$VNYMR,+050.641,+086.747,-018.711,-00.2089,+00.2430,-00.3825,+10.307,+00.316,+01.098,-00.015218,+00.176016,-00.005384*63
"
1712237357.1019118,+049.878,+086.921,-019.497,-00.2120,+00.2560,-00.3695,+10.243,+00.467,+01.468,-00.011616,+00.089016,+00.024762,"$VNYMR,+049.878,+086.921,-019.497,-00.2120,+00.2560,-00.3695,+10.243,+00.467,+01.468,-00.011616,+00.089016,+00.024762*63
"
1712237357.1268835,+050.775,+086.969,-018.619,-00.2099,+00.2501,-00.3893,+10.249,+00.403,+01.326,-00.007817,-00.013106,+00.054321,"$VNYMR,+050.775,+086.969,-018.619,-00.2099,+00.2501,-00.3893,+10.249,+00.403,+01.326,-00.007817,-00.013106,+00.054321*60
"
1712237357.15255,+052.995,+086.913,-016.416,-00.2122,+00.2442,-00.3787,+10.307,+00.098,+00.942,-00.005125,-00.092648,+00.072560,"$VNYMR,+052.995,+086.913,-016.416,-00.2122,+00.2442,-00.3787,+10.307,+00.098,+00.942,-00.005125,-00.092648,+00.072560*6C
"
1712237357.1770575,+055.638,+086.776,-013.787,-00.2086,+00.2583,-00.3853,+10.120,-00.143,+00.112,-00.002089,-00.123668,+00.070088,"$VNYMR,+055.638,+086.776,-013.787,-00.2086,+00.2583,-00.3853,+10.120,-00.143,+00.112,-00.002089,-00.123668,+00.070088*66
"
1712237357.2046044,+057.701,+086.635,-011.737,-00.2065,+00.2524,-00.3825,+09.598,-00.491,-00.711,-00.002348,-00.095793,+00.048068,"$VNYMR,+057.701,+086.635,-011.737,-00.2065,+00.2524,-00.3825,+09.598,-00.491,-00.711,-00.002348,-00.095793,+00.048068*65
"
1712237357.227123,+058.691,+086.567,-010.763,-00.2066,+00.2500,-00.3838,+08.975,-00.395,-01.459,-00.007844,-00.017294,+00.019770,"$VNYMR,+058.691,+086.567,-010.763,-00.2066,+00.2500,-00.3838,+08.975,-00.395,-01.459,-00.007844,-00.017294,+00.019770*6C
"
1712237357.2518995,+058.610,+086.636,-010.871,-00.2055,+00.2465,-00.3757,+08.699,-00.279,-01.623,-00.016617,+00.091517,-00.001093,"$VNYMR,+058.610,+086.636,-010.871,-00.2055,+00.2465,-00.3757,+08.699,-00.279,-01.623,-00.016617,+00.091517,-00.001093*62
"
1712237357.2768133,+057.688,+086.864,-011.832,-00.2078,+00.2465,-00.3825,+08.833,+00.067,-01.543,-00.026915,+00.211277,-00.004308,"$VNYMR,+057.688,+086.864,-011.832,-00.2078,+00.2465,-00.3825,+08.833,+00.067,-01.543,-00.026915,+00.211277,-00.004308*67
"
1712237357.3012993,+056.209,+087.245,-013.364,-00.2077,+00.2477,-00.3785,+09.351,+00.360,-01.021,-00.034940,+00.301362,+00.016248,"$VNYMR,+056.209,+087.245,-013.364,-00.2077,+00.2477,-00.3785,+09.351,+00.360,-01.021,-00.034940,+00.301362,+00.016248*6D
"
1712237357.3266032,+054.666,+087.719,-014.962,-00.2098,+00.2572,-00.3867,+09.887,+01.272,-00.857,-00.038953,+00.340336,+00.052658,"$VNYMR,+054.666,+087.719,-014.962,-00.2098,+00.2572,-00.3867,+09.887,+01.272,-00.857,-00.038953,+00.340336,+00.052658*67
"
1712237357.351047,+053.812,+088.218,-015.828,-00.2064,+00.2619,-00.3933,+10.409,+00.951,+00.416,+00.026853,+00.327359,+00.080794,"$VNYMR,+053.812,+088.218,-015.828,-00.2064,+00.2619,-00.3933,+10.409,+00.951,+00.416,+00.026853,+00.327359,+00.080794*6D
"
1712237357.3789482,+054.597,+088.640,-014.983,-00.2077,+00.2489,-00.3985,+10.357,+00.213,+01.252,+00.056305,+00.252144,+00.097186,"$VNYMR,+054.597,+088.640,-014.983,-00.2077,+00.2489,-00.3985,+10.357,+00.213,+01.252,+00.056305,+00.252144,+00.097186*61
"
1712237357.401637,+057.942,+088.936,-011.552,-00.2099,+00.2489,-00.3880,+10.310,-00.220,+01.593,+00.070321,+00.147116,+00.088909,"$VNYMR,+057.942,+088.936,-011.552,-00.2099,+00.2489,-00.3880,+10.310,-00.220,+01.593,+00.070321,+00.147116,+00.088909*65
"
1712237357.4262464,+062.991,+089.078,-006.408,-00.2066,+00.2512,-00.4011,+10.283,-00.330,+01.347,+00.074054,+00.047795,+00.062486,"$VNYMR,+062.991,+089.078,-006.408,-00.2066,+00.2512,-00.4011,+10.283,-00.330,+01.347,+00.074054,+00.047795,+00.062486*60
"
1712237357.4543586,+066.650,+089.083,-002.654,-00.2075,+00.2619,-00.3960,+10.236,-00.588,+01.743,+00.079523,-00.007228,+00.020777,"$VNYMR,+066.650,+089.083,-002.654,-00.2075,+00.2619,-00.3960,+10.236,-00.588,+01.743,+00.079523,-00.007228,+00.020777*66
"
1712237357.4793491,+066.347,+089.019,-002.824,-00.2086,+00.2607,-00.3974,+09.997,+00.431,+00.032,+00.117493,-00.049531,-00.030744,"$VNYMR,+066.347,+089.019,-002.824,-00.2086,+00.2607,-00.3974,+09.997,+00.431,+00.032,+00.117493,-00.049531,-00.030744*65
"
1712237357.5012553,+064.204,+088.958,-004.787,-00.2064,+00.2583,-00.4079,+09.811,+00.150,-00.687,+00.141756,-00.011920,-00.035320,"$VNYMR,+064.204,+088.958,-004.787,-00.2064,+00.2583,-00.4079,+09.811,+00.150,-00.687,+00.141756,-00.011920,-00.035320*64
"
1712237357.5260773,+061.420,+088.992,-007.335,-00.2030,+00.2606,-00.4118,+08.846,+01.191,-01.501,+00.202203,+00.062905,-00.030389,"$VNYMR,+061.420,+088.992,-007.335,-00.2030,+00.2606,-00.4118,+08.846,+01.191,-01.501,+00.202203,+00.062905,-00.030389*61
"
1712237357.5640366,+058.667,+089.170,-009.717,-00.2063,+00.2630,-00.4039,+08.869,+01.408,-01.526,+00.309485,+00.168756,-00.000026,"$VNYMR,+058.667,+089.170,-009.717,-00.2063,+00.2630,-00.4039,+08.869,+01.408,-01.526,+00.309485,+00.168756,-00.000026*6D
"
1712237357.5762513,+055.400,+089.503,-012.452,-00.2066,+00.2512,-00.4225,+08.859,+01.458,-01.527,+00.428627,+00.269447,+00.030846,"$VNYMR,+055.400,+089.503,-012.452,-00.2066,+00.2512,-00.4225,+08.859,+01.458,-01.527,+00.428627,+00.269447,+00.030846*61
"
1712237357.6011505,+010.991,+089.960,-056.158,-00.2098,+00.2572,-00.4174,+09.662,+01.437,-00.929,+00.544841,+00.348906,+00.059525,"$VNYMR,+010.991,+089.960,-056.158,-00.2098,+00.2572,-00.4174,+09.662,+01.437,-00.929,+00.544841,+00.348906,+00.059525*66
"
1712237357.6285427,-120.143,+089.499,+173.589,-00.2085,+00.2678,-00.4215,+10.053,+01.149,-00.000,+00.672150,+00.368913,+00.067814,"$VNYMR,-120.143,+089.499,+173.589,-00.2085,+00.2678,-00.4215,+10.053,+01.149,-00.000,+00.672150,+00.368913,+00.067814*6E
"
1712237357.6513064,-122.141,+088.997,+172.663,-00.2075,+00.2607,-00.4387,+10.447,+00.950,+00.941,+00.809717,+00.326018,+00.054072,"$VNYMR,-122.141,+088.997,+172.663,-00.2075,+00.2607,-00.4387,+10.447,+00.950,+00.941,+00.809717,+00.326018,+00.054072*6A
"
1712237357.6881704,-122.248,+088.602,+173.829,-00.2051,+00.2678,-00.4493,+10.320,+00.500,+01.481,+00.941229,+00.235789,+00.020257,"$VNYMR,-122.248,+088.602,+173.829,-00.2051,+00.2678,-00.4493,+10.320,+00.500,+01.481,+00.941229,+00.235789,+00.020257*6E
"
1712237357.7012253,-121.247,+088.356,+176.266,-00.2097,+00.2596,-00.4495,+10.305,+00.382,+01.638,+01.048323,+00.127493,-00.017947,"$VNYMR,-121.247,+088.356,+176.266,-00.2097,+00.2596,-00.4495,+10.305,+00.382,+01.638,+01.048323,+00.127493,-00.017947*6C
"
1712237357.7268353,-119.287,+088.273,+179.805,-00.2031,+00.2559,-00.4664,+10.427,+00.480,+01.490,+01.140721,+00.020505,-00.048282,"$VNYMR,-119.287,+088.273,+179.805,-00.2031,+00.2559,-00.4664,+10.427,+00.480,+01.490,+01.140721,+00.020505,-00.048282*63
"
1712237357.7511344,-116.577,+088.309,-175.772,-00.2065,+00.2536,-00.4639,+10.384,+00.774,+00.883,+01.238114,-00.054035,-00.056592,"$VNYMR,-116.577,+088.309,-175.772,-00.2065,+00.2536,-00.4639,+10.384,+00.774,+00.883,+01.238114,-00.054035,-00.056592*62
"
1712237357.7760775,-113.242,+088.408,-170.603,-00.2083,+00.2737,-00.4762,+10.069,+00.451,+00.085,+01.306012,-00.082137,-00.055984,"$VNYMR,-113.242,+088.408,-170.603,-00.2083,+00.2737,-00.4762,+10.069,+00.451,+00.085,+01.306012,-00.082137,-00.055984*67
"
1712237357.8012905,-109.672,+088.486,-165.143,-00.2072,+00.2761,-00.4815,+09.567,+00.187,-00.800,+01.324890,-00.054520,-00.053368,"$VNYMR,-109.672,+088.486,-165.143,-00.2072,+00.2761,-00.4815,+09.567,+00.187,-00.800,+01.324890,-00.054520,-00.053368*63
"
1712237357.838178,-106.810,+088.480,-160.416,-00.2086,+00.2596,-00.4921,+09.024,-00.311,-01.311,+01.285172,+00.021981,-00.052279,"$VNYMR,-106.810,+088.480,-160.416,-00.2086,+00.2596,-00.4921,+09.024,-00.311,-01.311,+01.285172,+00.021981,-00.052279*68
"
1712237357.851076,-105.537,+088.349,-157.357,-00.2130,+00.2596,-00.4910,+08.991,-00.451,-01.517,+01.217956,+00.113626,-00.059120,"$VNYMR,-105.537,+088.349,-157.357,-00.2130,+00.2596,-00.4910,+08.991,-00.451,-01.517,+01.217956,+00.113626,-00.059120*6F
"
1712237357.8788426,-105.758,+088.097,-155.913,-00.2086,+00.2596,-00.5068,+09.292,-00.888,-01.245,+01.120360,+00.194898,-00.071304,"$VNYMR,-105.758,+088.097,-155.913,-00.2086,+00.2596,-00.5068,+09.292,-00.888,-01.245,+01.120360,+00.194898,-00.071304*64
"
1712237357.901006,-106.742,+087.756,-155.410,-00.2088,+00.2478,-00.5107,+09.879,-00.672,-00.673,+00.978242,+00.241081,-00.079419,"$VNYMR,-106.742,+087.756,-155.410,-00.2088,+00.2478,-00.5107,+09.879,-00.672,-00.673,+00.978242,+00.241081,-00.079419*69
"
1712237357.9260516,-107.826,+087.405,-155.224,-00.2120,+00.2561,-00.5189,+10.482,-01.023,+00.154,+00.816164,+00.226121,-00.071601,"$VNYMR,-107.826,+087.405,-155.224,-00.2120,+00.2561,-00.5189,+10.482,-01.023,+00.154,+00.816164,+00.226121,-00.071601*6D
"
1712237357.9510498,-108.492,+087.124,-154.864,-00.2099,+00.2513,-00.5361,+10.446,-01.295,+01.046,+00.644888,+00.152637,-00.053505,"$VNYMR,-108.492,+087.124,-154.864,-00.2099,+00.2513,-00.5361,+10.446,-01.295,+01.046,+00.644888,+00.152637,-00.053505*6B
"
1712237357.979058,-108.436,+086.974,-154.062,-00.2112,+00.2419,-00.5347,+10.382,-01.284,+01.335,+00.441949,+00.046736,-00.039489,"$VNYMR,-108.436,+086.974,-154.062,-00.2112,+00.2419,-00.5347,+10.382,-01.284,+01.335,+00.441949,+00.046736,-00.039489*64
"
1712237358.0008917,-107.508,+086.986,-152.679,-00.2111,+00.2454,-00.5214,+10.268,-01.210,+01.576,+00.235989,-00.065603,-00.019844,"$VNYMR,-107.508,+086.986,-152.679,-00.2111,+00.2454,-00.5214,+10.268,-01.210,+01.576,+00.235989,-00.065603,-00.019844*62
"
1712237358.0262072,-105.403,+087.157,-150.400,-00.2100,+00.2466,-00.5374,+10.392,-01.336,+01.228,+00.044171,-00.179049,-00.006249,"$VNYMR,-105.403,+087.157,-150.400,-00.2100,+00.2466,-00.5374,+10.392,-01.336,+01.228,+00.044171,-00.179049,-00.006249*6C
"
1712237358.0536063,-101.758,+087.438,-146.840,-00.2123,+00.2407,-00.5254,+10.355,-01.284,+00.734,-00.122983,-00.259920,+00.001663,"$VNYMR,-101.758,+087.438,-146.840,-00.2123,+00.2407,-00.5254,+10.355,-01.284,+00.734,-00.122983,-00.259920,+00.001663*61
"
1712237358.0759692,-096.306,+087.755,-141.704,-00.2121,+00.2514,-00.5229,+10.006,-01.316,-00.179,-00.277989,-00.275887,-00.003354,"$VNYMR,-096.306,+087.755,-141.704,-00.2121,+00.2514,-00.5229,+10.006,-01.316,-00.179,-00.277989,-00.275887,-00.003354*62
"
1712237358.1009681,-089.313,+088.021,-135.246,-00.2099,+00.2501,-00.5294,+09.433,-01.292,-00.903,-00.429034,-00.237717,-00.017011,"$VNYMR,-089.313,+088.021,-135.246,-00.2099,+00.2501,-00.5294,+09.433,-01.292,-00.903,-00.429034,-00.237717,-00.017011*64
"
1712237358.1286342,-082.511,+088.183,-129.176,-00.2145,+00.2408,-00.5162,+09.008,-00.804,-01.359,-00.556679,-00.156363,-00.023539,"$VNYMR,-082.511,+088.183,-129.176,-00.2145,+00.2408,-00.5162,+09.008,-00.804,-01.359,-00.556679,-00.156363,-00.023539*6C
"
1712237358.1510286,-078.421,+088.247,-125.965,-00.2122,+00.2466,-00.5028,+08.908,-00.301,-01.356,-00.645172,-00.060224,-00.013199,"$VNYMR,-078.421,+088.247,-125.965,-00.2122,+00.2466,-00.5028,+08.908,-00.301,-01.356,-00.645172,-00.060224,-00.013199*6F
"
1712237358.1760104,-078.226,+088.254,-126.743,-00.2133,+00.2478,-00.5095,+09.158,+00.084,-01.063,-00.698473,+00.028085,+00.011133,"$VNYMR,-078.226,+088.254,-126.743,-00.2133,+00.2478,-00.5095,+09.158,+00.084,-01.063,-00.698473,+00.028085,+00.011133*6E
"
1712237358.200936,-081.297,+088.221,-130.838,-00.2122,+00.2478,-00.5001,+09.735,-00.039,-00.376,-00.723679,+00.084064,+00.028072,"$VNYMR,-081.297,+088.221,-130.838,-00.2122,+00.2478,-00.5001,+09.735,-00.039,-00.376,-00.723679,+00.084064,+00.028072*6C
"
1712237358.2291267,-085.195,+088.161,-135.763,-00.2132,+00.2537,-00.5043,+10.174,-00.006,+00.378,-00.709612,+00.087912,+00.026247,"$VNYMR,-085.195,+088.161,-135.763,-00.2132,+00.2537,-00.5043,+10.174,-00.006,+00.378,-00.709612,+00.087912,+00.026247*6C
"
1712237358.2519822,-087.632,+088.111,-139.181,-00.2098,+00.2537,-00.5041,+10.317,-00.070,+01.172,-00.665304,+00.039100,+00.008876,"$VNYMR,-087.632,+088.111,-139.181,-00.2098,+00.2537,-00.5041,+10.317,-00.070,+01.172,-00.665304,+00.039100,+00.008876*6A
"
1712237358.278065,-087.253,+088.118,-139.705,-00.2122,+00.2466,-00.4948,+10.316,+00.130,+01.631,-00.607239,-00.046624,-00.011555,"$VNYMR,-087.253,+088.118,-139.705,-00.2122,+00.2466,-00.4948,+10.316,+00.130,+01.631,-00.607239,-00.046624,-00.011555*6A
"
1712237358.3009875,-083.727,+088.211,-137.012,-00.2154,+00.2526,-00.4804,+10.270,+00.307,+01.663,-00.566372,-00.139795,-00.016409,"$VNYMR,-083.727,+088.211,-137.012,-00.2154,+00.2526,-00.4804,+10.270,+00.307,+01.663,-00.566372,-00.139795,-00.016409*67
"
1712237358.3260338,-076.695,+088.396,-130.765,-00.2132,+00.2537,-00.4883,+10.298,+00.678,+01.322,-00.531500,-00.225745,-00.001095,"$VNYMR,-076.695,+088.396,-130.765,-00.2132,+00.2537,-00.4883,+10.298,+00.678,+01.322,-00.531500,-00.225745,-00.001095*6A
"
1712237358.351357,-065.527,+088.632,-120.336,-00.2120,+00.2561,-00.4762,+10.192,+00.841,+00.605,-00.497637,-00.277286,+00.027577,"$VNYMR,-065.527,+088.632,-120.336,-00.2120,+00.2561,-00.4762,+10.192,+00.841,+00.605,-00.497637,-00.277286,+00.027577*6A
"
1712237358.3770545,-049.568,+088.843,-105.063,-00.2140,+00.2679,-00.4658,+09.858,+00.530,-00.107,-00.461160,-00.279780,+00.045305,"$VNYMR,-049.568,+088.843,-105.063,-00.2140,+00.2679,-00.4658,+09.858,+00.530,-00.107,-00.461160,-00.279780,+00.045305*6E
"
1712237358.4009683,-031.191,+088.946,-087.325,-00.2098,+00.2560,-00.4721,+09.419,-00.057,-00.921,-00.433534,-00.233728,+00.036709,"$VNYMR,-031.191,+088.946,-087.325,-00.2098,+00.2560,-00.4721,+09.419,-00.057,-00.921,-00.433534,-00.233728,+00.036709*68
"
1712237358.4270537,-016.762,+088.933,-073.503,-00.2121,+00.2502,-00.4655,+08.908,-00.256,-01.215,-00.416687,-00.149306,+00.009328,"$VNYMR,-016.762,+088.933,-073.503,-00.2121,+00.2502,-00.4655,+08.908,-00.256,-01.215,-00.416687,-00.149306,+00.009328*6A
"
1712237358.4512463,-010.242,+088.878,-067.584,-00.2121,+00.2537,-00.4495,+08.972,-00.270,-01.268,-00.418937,-00.056452,-00.018014,"$VNYMR,-010.242,+088.878,-067.584,-00.2121,+00.2537,-00.4495,+08.972,-00.270,-01.268,-00.418937,-00.056452,-00.018014*6D
"
1712237358.477427,-010.674,+088.840,-068.620,-00.2133,+00.2490,-00.4575,+09.322,-00.001,-00.956,-00.422348,+00.028195,-00.029892,"$VNYMR,-010.674,+088.840,-068.620,-00.2133,+00.2490,-00.4575,+09.322,-00.001,-00.956,-00.422348,+00.028195,-00.029892*66
"
1712237358.5012877,-014.901,+088.845,-073.460,-00.2144,+00.2490,-00.4469,+09.875,+00.583,-00.292,-00.429771,+00.072120,-00.005133,"$VNYMR,-014.901,+088.845,-073.460,-00.2144,+00.2490,-00.4469,+09.875,+00.583,-00.292,-00.429771,+00.072120,-00.005133*61
"
1712237358.5272005,-019.458,+088.891,-078.638,-00.2152,+00.2632,-00.4511,+10.162,+00.394,+00.510,-00.434166,+00.062833,+00.027140,"$VNYMR,-019.458,+088.891,-078.638,-00.2152,+00.2632,-00.4511,+10.162,+00.394,+00.510,-00.434166,+00.062833,+00.027140*6B
"
1712237358.553592,-021.247,+088.948,-081.037,-00.2120,+00.2549,-00.4509,+10.177,+00.338,+01.253,-00.414391,+00.002096,+00.037899,"$VNYMR,-021.247,+088.948,-081.037,-00.2120,+00.2549,-00.4509,+10.177,+00.338,+01.253,-00.414391,+00.002096,+00.037899*67
"
1712237358.5772395,-017.597,+088.987,-077.985,-00.2142,+00.2549,-00.4470,+10.264,-00.023,+01.325,-00.405814,-00.073270,+00.030085,"$VNYMR,-017.597,+088.987,-077.985,-00.2142,+00.2549,-00.4470,+10.264,-00.023,+01.325,-00.405814,-00.073270,+00.030085*69
"
1712237358.6013684,-007.368,+088.972,-068.332,-00.2132,+00.2537,-00.4335,+10.270,-00.037,+01.320,-00.391892,-00.156874,+00.019544,"$VNYMR,-007.368,+088.972,-068.332,-00.2132,+00.2537,-00.4335,+10.270,-00.037,+01.320,-00.391892,-00.156874,+00.019544*6E
"
1712237358.629696,+006.169,+088.844,-055.351,-00.2143,+00.2526,-00.4403,+10.229,-00.150,+00.914,-00.380171,-00.223771,-00.002941,"$VNYMR,+006.169,+088.844,-055.351,-00.2143,+00.2526,-00.4403,+10.229,-00.150,+00.914,-00.380171,-00.223771,-00.002941*6B
"
1712237358.6541681,+017.754,+088.603,-044.303,-00.2133,+00.2490,-00.4215,+09.986,-00.156,+00.217,-00.366335,-00.251926,-00.019461,"$VNYMR,+017.754,+088.603,-044.303,-00.2133,+00.2490,-00.4215,+09.986,-00.156,+00.217,-00.366335,-00.251926,-00.019461*6D
"
1712237358.6770914,+025.396,+088.316,-037.185,-00.2131,+00.2584,-00.4243,+09.734,+00.130,-00.524,-00.361662,-00.232974,-00.023774,"$VNYMR,+025.396,+088.316,-037.185,-00.2131,+00.2584,-00.4243,+09.734,+00.130,-00.524,-00.361662,-00.232974,-00.023774*66
"
1712237358.7043226,+030.009,+088.070,-033.084,-00.2096,+00.2655,-00.4268,+09.193,+00.311,-01.002,-00.354656,-00.172233,-00.009478,"$VNYMR,+030.009,+088.070,-033.084,-00.2096,+00.2655,-00.4268,+09.193,+00.311,-01.002,-00.354656,-00.172233,-00.009478*69
"
1712237358.7300265,+032.807,+087.926,-030.796,-00.2109,+00.2537,-00.4188,+08.974,+00.373,-01.237,-00.355813,-00.086162,+00.015111,"$VNYMR,+032.807,+087.926,-030.796,-00.2109,+00.2537,-00.4188,+08.974,+00.373,-01.237,-00.355813,-00.086162,+00.015111*60
"
1712237358.7510433,+034.537,+087.910,-029.578,-00.2089,+00.2465,-00.4066,+09.035,+00.367,-01.197,-00.356214,+00.001611,+00.042086,"$VNYMR,+034.537,+087.910,-029.578,-00.2089,+00.2465,-00.4066,+09.035,+00.367,-01.197,-00.356214,+00.001611,+00.042086*61
"
1712237358.7768743,+035.695,+088.009,-028.932,-00.2110,+00.2501,-00.4187,+09.454,+00.245,-00.835,-00.357073,+00.072508,+00.067732,"$VNYMR,+035.695,+088.009,-028.932,-00.2110,+00.2501,-00.4187,+09.454,+00.245,-00.835,-00.357073,+00.072508,+00.067732*6A
"
1712237358.8008575,+036.585,+088.172,-028.553,-00.2110,+00.2489,-00.4080,+09.957,-00.094,-00.100,-00.354811,+00.099429,+00.073673,"$VNYMR,+036.585,+088.172,-028.553,-00.2110,+00.2489,-00.4080,+09.957,-00.094,-00.100,-00.354811,+00.099429,+00.073673*6A
"
1712237358.8269386,+037.347,+088.339,-028.299,-00.2119,+00.2620,-00.4109,+10.138,-00.263,+00.510,-00.352693,+00.085131,+00.064553,"$VNYMR,+037.347,+088.339,-028.299,-00.2119,+00.2620,-00.4109,+10.138,-00.263,+00.510,-00.352693,+00.085131,+00.064553*63
"
1712237358.8545823,+038.376,+088.442,-027.769,-00.2098,+00.2560,-00.4174,+10.179,-00.287,+01.028,-00.345475,+00.032049,+00.040761,"$VNYMR,+038.376,+088.442,-027.769,-00.2098,+00.2560,-00.4174,+10.179,-00.287,+01.028,-00.345475,+00.032049,+00.040761*6E
"
1712237358.8826547,+039.974,+088.443,-026.659,-00.2097,+00.2596,-00.4121,+10.160,-00.311,+01.180,-00.337247,-00.042971,+00.016406,"$VNYMR,+039.974,+088.443,-026.659,-00.2097,+00.2596,-00.4121,+10.160,-00.311,+01.180,-00.337247,-00.042971,+00.016406*66
"
1712237358.9014826,+042.182,+088.338,-024.927,-00.2122,+00.2478,-00.3987,+10.211,-00.172,+01.062,-00.328793,-00.114514,-00.000716,"$VNYMR,+042.182,+088.338,-024.927,-00.2122,+00.2478,-00.3987,+10.211,-00.172,+01.062,-00.328793,-00.114514,-00.000716*6A
"
1712237358.9270105,+044.751,+088.143,-022.823,-00.2089,+00.2465,-00.4039,+10.191,+00.048,+00.661,-00.322645,-00.166194,-00.006432,"$VNYMR,+044.751,+088.143,-022.823,-00.2089,+00.2465,-00.4039,+10.191,+00.048,+00.661,-00.322645,-00.166194,-00.006432*65
"
1712237358.9539192,+047.441,+087.905,-020.594,-00.2132,+00.2513,-00.4015,+09.906,+00.264,+00.026,-00.320616,-00.182646,+00.004339,"$VNYMR,+047.441,+087.905,-020.594,-00.2132,+00.2513,-00.4015,+09.906,+00.264,+00.026,-00.320616,-00.182646,+00.004339*64
"
1712237358.9770734,+050.162,+087.689,-018.336,-00.2098,+00.2572,-00.3947,+09.594,+00.436,-00.700,-00.322891,-00.153271,+00.029447,"$VNYMR,+050.162,+087.689,-018.336,-00.2098,+00.2572,-00.3947,+09.594,+00.436,-00.700,-00.322891,-00.153271,+00.029447*6A
"
1712237359.0021417,+052.920,+087.551,-016.048,-00.2076,+00.2548,-00.4026,+09.129,+00.360,-01.121,-00.326845,-00.085891,+00.061025,"$VNYMR,+052.920,+087.551,-016.048,-00.2076,+00.2548,-00.4026,+09.129,+00.360,-01.121,-00.326845,-00.085891,+00.061025*69
"
1712237359.0269308,+055.616,+087.526,-013.833,-00.2077,+00.2512,-00.3919,+09.031,+00.175,-01.241,-00.336267,-00.017917,+00.081562,"$VNYMR,+055.616,+087.526,-013.833,-00.2077,+00.2512,-00.3919,+09.031,+00.175,-01.241,-00.336267,-00.017917,+00.081562*65
"
1712237359.0523515,+058.221,+087.608,-011.717,-00.2089,+00.2465,-00.3799,+09.164,-00.031,-01.150,-00.340542,+00.080138,+00.090958,"$VNYMR,+058.221,+087.608,-011.717,-00.2089,+00.2465,-00.3799,+09.164,-00.031,-01.150,-00.340542,+00.080138,+00.090958*66
"
1712237359.0795424,+060.464,+087.802,-009.967,-00.2055,+00.2465,-00.3877,+09.530,-00.237,-00.702,-00.343126,+00.149910,+00.083541,"$VNYMR,+060.464,+087.802,-009.967,-00.2055,+00.2465,-00.3877,+09.530,-00.237,-00.702,-00.343126,+00.149910,+00.083541*64
"
1712237359.1046824,+062.215,+088.045,-008.707,-00.2075,+00.2583,-00.3826,+09.953,-00.402,-00.019,-00.341646,+00.163531,+00.061630,"$VNYMR,+062.215,+088.045,-008.707,-00.2075,+00.2583,-00.3826,+09.953,-00.402,-00.019,-00.341646,+00.163531,+00.061630*6D
"
1712237359.1270063,+063.315,+088.270,-008.093,-00.2086,+00.2607,-00.3827,+10.100,-00.298,+00.637,-00.336428,+00.138690,+00.039256,"$VNYMR,+063.315,+088.270,-008.093,-00.2086,+00.2607,-00.3827,+10.100,-00.298,+00.637,-00.336428,+00.138690,+00.039256*6B
"
1712237359.154568,+063.932,+088.433,-007.950,-00.2032,+00.2547,-00.3903,+10.201,-00.116,+01.028,-00.328135,+00.084599,+00.022193,"$VNYMR,+063.932,+088.433,-007.950,-00.2032,+00.2547,-00.3903,+10.201,-00.116,+01.028,-00.328135,+00.084599,+00.022193*67
"
1712237359.1773098,+064.672,+088.494,-007.676,-00.2088,+00.2501,-00.3906,+10.208,+00.031,+01.186,-00.321468,+00.008651,+00.018850,"$VNYMR,+064.672,+088.494,-007.676,-00.2088,+00.2501,-00.3906,+10.208,+00.031,+01.186,-00.321468,+00.008651,+00.018850*6D
"
1712237359.2018766,+066.164,+088.446,-006.640,-00.2044,+00.2464,-00.3730,+10.242,+00.255,+00.967,-00.315699,-00.061131,+00.027702,"$VNYMR,+066.164,+088.446,-006.640,-00.2044,+00.2464,-00.3730,+10.242,+00.255,+00.967,-00.315699,-00.061131,+00.027702*62
"
1712237359.2297673,+068.602,+088.323,-004.654,-00.2033,+00.2488,-00.3863,+10.108,+00.334,+00.400,-00.313317,-00.102419,+00.049125,"$VNYMR,+068.602,+088.323,-004.654,-00.2033,+00.2488,-00.3863,+10.108,+00.334,+00.400,-00.313317,-00.102419,+00.049125*61
"
1712237359.2521362,+071.742,+088.173,-001.963,-00.2033,+00.2488,-00.3716,+09.844,+00.257,-00.259,-00.313049,-00.104237,+00.069173,"$VNYMR,+071.742,+088.173,-001.963,-00.2033,+00.2488,-00.3716,+09.844,+00.257,-00.259,-00.313049,-00.104237,+00.069173*6C
"
1712237359.277048,+075.155,+088.055,+000.997,-00.2042,+00.2594,-00.3704,+09.448,+00.056,-00.810,-00.316334,-00.065307,+00.082407,"$VNYMR,+075.155,+088.055,+000.997,-00.2042,+00.2594,-00.3704,+09.448,+00.056,-00.810,-00.316334,-00.065307,+00.082407*67
"
1712237359.30603,+078.566,+088.012,+003.950,-00.2010,+00.2535,-00.3742,+09.131,-00.093,-01.146,-00.321032,+00.004611,+00.081282,"$VNYMR,+078.566,+088.012,+003.950,-00.2010,+00.2535,-00.3742,+09.131,-00.093,-01.146,-00.321032,+00.004611,+00.081282*6E
"
1712237359.3297524,+081.949,+088.077,+006.867,-00.2010,+00.2499,-00.3702,+09.029,-00.237,-01.166,-00.325433,+00.087737,+00.071904,"$VNYMR,+081.949,+088.077,+006.867,-00.2010,+00.2499,-00.3702,+09.029,-00.237,-01.166,-00.325433,+00.087737,+00.071904*6A
"
1712237359.353951,+085.613,+088.256,+010.059,-00.2012,+00.2428,-00.3607,+09.309,-00.260,-00.978,-00.329452,+00.163940,+00.057865,"$VNYMR,+085.613,+088.256,+010.059,-00.2012,+00.2428,-00.3607,+09.309,-00.260,-00.978,-00.329452,+00.163940,+00.057865*68
"
1712237359.3767867,+090.073,+088.514,+014.045,-00.2010,+00.2523,-00.3755,+09.673,-00.143,-00.418,-00.329597,+00.209793,+00.043604,"$VNYMR,+090.073,+088.514,+014.045,-00.2010,+00.2523,-00.3755,+09.673,-00.143,-00.418,-00.329597,+00.209793,+00.043604*60
"
1712237359.4038434,+096.395,+088.797,+019.894,-00.2056,+00.2453,-00.3690,+10.051,-00.020,+00.151,-00.328780,+00.218189,+00.039766,"$VNYMR,+096.395,+088.797,+019.894,-00.2056,+00.2453,-00.3690,+10.051,-00.020,+00.151,-00.328780,+00.218189,+00.039766*65
"
1712237359.4269578,+105.655,+089.033,+028.685,-00.2042,+00.2559,-00.3677,+10.215,+00.125,+00.796,-00.323498,+00.183905,+00.047377,"$VNYMR,+105.655,+089.033,+028.685,-00.2042,+00.2559,-00.3677,+10.215,+00.125,+00.796,-00.323498,+00.183905,+00.047377*68
"
1712237359.4518864,+117.143,+089.164,+039.712,-00.2031,+00.2559,-00.3757,+10.240,+00.167,+01.126,-00.318424,+00.116220,+00.057763,"$VNYMR,+117.143,+089.164,+039.712,-00.2031,+00.2559,-00.3757,+10.240,+00.167,+01.126,-00.318424,+00.116220,+00.057763*65
"
1712237359.4778347,+126.511,+089.174,+048.629,-00.1989,+00.2463,-00.3740,+10.257,+00.135,+01.159,-00.310643,+00.039972,+00.065674,"$VNYMR,+126.511,+089.174,+048.629,-00.1989,+00.2463,-00.3740,+10.257,+00.135,+01.159,-00.310643,+00.039972,+00.065674*69
"
1712237359.5019038,+130.564,+089.100,+052.244,-00.1987,+00.2558,-00.3621,+10.223,-00.018,+00.830,-00.303398,-00.022824,+00.067423,"$VNYMR,+130.564,+089.100,+052.244,-00.1987,+00.2558,-00.3621,+10.223,-00.018,+00.830,-00.303398,-00.022824,+00.067423*6B
"
1712237359.5268822,+130.657,+088.989,+051.908,-00.1988,+00.2487,-00.3740,+10.087,-00.190,+00.285,-00.298174,-00.059187,+00.057906,"$VNYMR,+130.657,+088.989,+051.908,-00.1988,+00.2487,-00.3740,+10.087,-00.190,+00.285,-00.298174,-00.059187,+00.057906*65
"
1712237359.5539298,+129.332,+088.882,+050.158,-00.1987,+00.2570,-00.3648,+09.743,-00.235,-00.300,-00.296328,-00.054102,+00.040921,"$VNYMR,+129.332,+088.882,+050.158,-00.1987,+00.2570,-00.3648,+09.743,-00.235,-00.300,-00.296328,-00.054102,+00.040921*65
"
1712237359.5768218,+129.101,+088.819,+049.504,-00.1987,+00.2582,-00.3555,+09.389,-00.217,-00.839,-00.296633,-00.010898,+00.026105,"$VNYMR,+129.101,+088.819,+049.504,-00.1987,+00.2582,-00.3555,+09.389,-00.217,-00.839,-00.296633,-00.010898,+00.026105*6A
"
1712237359.6017535,+131.461,+088.825,+051.436,-00.1976,+00.2558,-00.3647,+09.190,-00.101,-01.102,-00.299562,+00.055703,+00.015737,"$VNYMR,+131.461,+088.825,+051.436,-00.1976,+00.2558,-00.3647,+09.190,-00.101,-01.102,-00.299562,+00.055703,+00.015737*64
"
1712237359.6269467,+138.166,+088.889,+057.705,-00.1978,+00.2451,-00.3619,+09.200,+00.075,-01.020,-00.303732,+00.130940,+00.022511,"$VNYMR,+138.166,+088.889,+057.705,-00.1978,+00.2451,-00.3619,+09.200,+00.075,-01.020,-00.303732,+00.130940,+00.022511*62
"
1712237359.6517973,+150.890,+088.960,+069.989,-00.2012,+00.2416,-00.3527,+09.440,+00.244,-00.736,-00.306471,+00.193903,+00.037176,"$VNYMR,+150.890,+088.960,+069.989,-00.2012,+00.2416,-00.3527,+09.440,+00.244,-00.736,-00.306471,+00.193903,+00.037176*6B
"
1712237359.6767535,+168.197,+088.954,+086.851,-00.1966,+00.2498,-00.3699,+09.799,+00.267,-00.233,-00.308346,+00.225219,+00.058330,"$VNYMR,+168.197,+088.954,+086.851,-00.1966,+00.2498,-00.3699,+09.799,+00.267,-00.233,-00.308346,+00.225219,+00.058330*69
"
1712237359.7017195,-175.749,+088.831,+102.460,-00.1989,+00.2452,-00.3566,+10.087,+00.144,+00.372,-00.307494,+00.216333,+00.074945,"$VNYMR,-175.749,+088.831,+102.460,-00.1989,+00.2452,-00.3566,+10.087,+00.144,+00.372,-00.307494,+00.216333,+00.074945*6B
"
1712237359.727038,-165.185,+088.640,+112.584,-00.1998,+00.2570,-00.3608,+10.203,-00.072,+00.870,-00.302359,+00.175594,+00.078659,"$VNYMR,-165.185,+088.640,+112.584,-00.1998,+00.2570,-00.3608,+10.203,-00.072,+00.870,-00.302359,+00.175594,+00.078659*61
"
1712237359.7518795,-159.722,+088.463,+117.620,-00.1944,+00.2510,-00.3725,+10.213,-00.287,+01.068,-00.293970,+00.109072,+00.064559,"$VNYMR,-159.722,+088.463,+117.620,-00.1944,+00.2510,-00.3725,+10.213,-00.287,+01.068,-00.293970,+00.109072,+00.064559*6E
"
1712237359.7805827,-157.599,+088.354,+119.330,-00.1976,+00.2546,-00.3647,+10.159,-00.415,+01.013,-00.283541,+00.042794,+00.034198,"$VNYMR,-157.599,+088.354,+119.330,-00.1976,+00.2546,-00.3647,+10.159,-00.415,+01.013,-00.283541,+00.042794,+00.034198*62
"
1712237359.8045874,-157.758,+088.331,+118.774,-00.1967,+00.2427,-00.3485,+10.135,-00.431,+00.788,-00.273901,-00.017191,+00.001196,"$VNYMR,-157.758,+088.331,+118.774,-00.1967,+00.2427,-00.3485,+10.135,-00.431,+00.788,-00.273901,-00.017191,+00.001196*63
"
1712237359.8269267,-158.958,+088.376,+117.188,-00.1945,+00.2439,-00.3657,+10.033,-00.257,+00.249,-00.267043,-00.049372,-00.025666,"$VNYMR,-158.958,+088.376,+117.188,-00.1945,+00.2439,-00.3657,+10.033,-00.257,+00.249,-00.267043,-00.049372,-00.025666*66
"
1712237359.8517947,-160.449,+088.451,+115.318,-00.1966,+00.2475,-00.3526,+09.757,-00.038,-00.257,-00.265107,-00.044619,-00.036952,"$VNYMR,-160.449,+088.451,+115.318,-00.1966,+00.2475,-00.3526,+09.757,-00.038,-00.257,-00.265107,-00.044619,-00.036952*64
"
1712237359.8788793,-160.923,+088.509,+114.464,-00.1965,+00.2557,-00.3566,+09.467,+00.213,-00.712,-00.266355,-00.007157,-00.026667,"$VNYMR,-160.923,+088.509,+114.464,-00.1965,+00.2557,-00.3566,+09.467,+00.213,-00.712,-00.266355,-00.007157,-00.026667*6F
"
1712237359.9046366,-159.154,+088.512,+115.847,-00.1944,+00.2486,-00.3591,+09.262,+00.358,-00.866,-00.270171,+00.048876,-00.004513,"$VNYMR,-159.154,+088.512,+115.847,-00.1944,+00.2486,-00.3591,+09.262,+00.358,-00.866,-00.270171,+00.048876,-00.004513*68
"
1712237359.929241,-155.274,+088.436,+119.334,-00.1955,+00.2498,-00.3592,+09.310,+00.384,-00.839,-00.274987,+00.112271,+00.025578,"$VNYMR,-155.274,+088.436,+119.334,-00.1955,+00.2498,-00.3592,+09.310,+00.384,-00.839,-00.274987,+00.112271,+00.025578*6C
"
1712237359.9518921,-150.220,+088.277,+123.989,-00.1977,+00.2487,-00.3446,+09.507,+00.244,-00.559,-00.277243,+00.163158,+00.050392,"$VNYMR,-150.220,+088.277,+123.989,-00.1977,+00.2487,-00.3446,+09.507,+00.244,-00.559,-00.277243,+00.163158,+00.050392*60
"
1712237359.9788303,-145.271,+088.060,+128.538,-00.1943,+00.2533,-00.3565,+09.835,-00.054,-00.110,-00.277743,+00.184897,+00.059725,"$VNYMR,-145.271,+088.060,+128.538,-00.1943,+00.2533,-00.3565,+09.835,-00.054,-00.110,-00.277743,+00.184897,+00.059725*67
"
1712237360.0020008,-141.062,+087.834,+132.351,-00.1990,+00.2416,-00.3459,+10.088,-00.298,+00.398,-00.273080,+00.173821,+00.045729,"$VNYMR,-141.062,+087.834,+132.351,-00.1990,+00.2416,-00.3459,+10.088,-00.298,+00.398,-00.273080,+00.173821,+00.045729*69
"
1712237360.0287745,-137.866,+087.656,+135.161,-00.1966,+00.2510,-00.3539,+10.111,-00.482,+00.800,-00.265422,+00.133478,+00.016075,"$VNYMR,-137.866,+087.656,+135.161,-00.1966,+00.2510,-00.3539,+10.111,-00.482,+00.800,-00.265422,+00.133478,+00.016075*60
"
1712237360.052034,-135.432,+087.565,+137.222,-00.1955,+00.2475,-00.3605,+10.161,-00.516,+01.038,-00.253778,+00.067468,-00.023571,"$VNYMR,-135.432,+087.565,+137.222,-00.1955,+00.2475,-00.3605,+10.161,-00.516,+01.038,-00.253778,+00.067468,-00.023571*64
"
1712237360.07672,-133.740,+087.578,+138.559,-00.1957,+00.2392,-00.3564,+10.147,-00.303,+01.049,-00.242195,+00.000651,-00.055909,"$VNYMR,-133.740,+087.578,+138.559,-00.1957,+00.2392,-00.3564,+10.147,-00.303,+01.049,-00.242195,+00.000651,-00.055909*6A
"
1712237360.1034818,-132.809,+087.683,+139.149,-00.2000,+00.2452,-00.3474,+10.157,-00.122,+00.749,-00.235003,-00.055889,-00.074198,"$VNYMR,-132.809,+087.683,+139.149,-00.2000,+00.2452,-00.3474,+10.157,-00.122,+00.749,-00.235003,-00.055889,-00.074198*6F
"
1712237360.1269271,-132.605,+087.838,+139.021,-00.1958,+00.2344,-00.3510,+10.027,+00.186,+00.237,-00.229958,-00.088740,-00.071926,"$VNYMR,-132.605,+087.838,+139.021,-00.1958,+00.2344,-00.3510,+10.027,+00.186,+00.237,-00.229958,-00.088740,-00.071926*62
"
1712237360.1516132,-133.022,+087.993,+138.276,-00.1980,+00.2333,-00.3458,+09.747,+00.309,-00.254,-00.229947,-00.085922,-00.053659,"$VNYMR,-133.022,+087.993,+138.276,-00.1980,+00.2333,-00.3458,+09.747,+00.309,-00.254,-00.229947,-00.085922,-00.053659*68
"
1712237360.178945,-133.720,+088.104,+137.248,-00.2000,+00.2440,-00.3420,+09.466,+00.357,-00.681,-00.232265,-00.053070,-00.028756,"$VNYMR,-133.720,+088.104,+137.248,-00.2000,+00.2440,-00.3420,+09.466,+00.357,-00.681,-00.232265,-00.053070,-00.028756*69
"
1712237360.201534,-133.878,+088.141,+136.752,-00.1956,+00.2427,-00.3564,+09.277,+00.234,-00.814,-00.238040,+00.000070,-00.004352,"$VNYMR,-133.878,+088.141,+136.752,-00.1956,+00.2427,-00.3564,+09.277,+00.234,-00.814,-00.238040,+00.000070,-00.004352*6D
"
1712237360.226664,-132.795,+088.097,+137.493,-00.1959,+00.2309,-00.3483,+09.370,+00.022,-00.844,-00.240247,+00.060504,+00.006026,"$VNYMR,-132.795,+088.097,+137.493,-00.1959,+00.2309,-00.3483,+09.370,+00.022,-00.844,-00.240247,+00.060504,+00.006026*61
"
1712237360.2542298,-130.432,+087.996,+139.509,-00.1980,+00.2357,-00.3391,+09.557,-00.220,-00.498,-00.242361,+00.107933,+00.002548,"$VNYMR,-130.432,+087.996,+139.509,-00.1980,+00.2357,-00.3391,+09.557,-00.220,-00.498,-00.242361,+00.107933,+00.002548*63
"
1712237360.2795181,-127.078,+087.869,+142.515,-00.1991,+00.2345,-00.3485,+09.836,-00.365,-00.055,-00.239921,+00.128668,-00.018887,"$VNYMR,-127.078,+087.869,+142.515,-00.1991,+00.2345,-00.3485,+09.836,-00.365,-00.055,-00.239921,+00.128668,-00.018887*6C
"
1712237360.3045027,-123.347,+087.755,+145.903,-00.1980,+00.2333,-00.3364,+10.067,-00.349,+00.469,-00.234151,+00.112018,-00.044256,"$VNYMR,-123.347,+087.755,+145.903,-00.1980,+00.2333,-00.3364,+10.067,-00.349,+00.469,-00.234151,+00.112018,-00.044256*60
"
1712237360.32722,-119.912,+087.698,+149.006,-00.2001,+00.2393,-00.3380,+10.161,-00.261,+00.918,-00.226871,+00.065105,-00.067795,"$VNYMR,-119.912,+087.698,+149.006,-00.2001,+00.2393,-00.3380,+10.161,-00.261,+00.918,-00.226871,+00.065105,-00.067795*68
"
1712237360.351616,-117.073,+087.719,+151.524,-00.1991,+00.2345,-00.3499,+10.224,-00.052,+01.133,-00.219362,-00.001055,-00.079859,"$VNYMR,-117.073,+087.719,+151.524,-00.1991,+00.2345,-00.3499,+10.224,-00.052,+01.133,-00.219362,-00.001055,-00.079859*6E
"
1712237360.3766136,-115.200,+087.834,+153.089,-00.2005,+00.2215,-00.3458,+10.181,+00.103,+01.014,-00.211373,-00.072191,-00.081757,"$VNYMR,-115.200,+087.834,+153.089,-00.2005,+00.2215,-00.3458,+10.181,+00.103,+01.014,-00.211373,-00.072191,-00.081757*6C
"
1712237360.4016273,-114.392,+088.024,+153.599,-00.2024,+00.2346,-00.3367,+10.156,+00.184,+00.701,-00.206474,-00.131742,-00.073777,"$VNYMR,-114.392,+088.024,+153.599,-00.2024,+00.2346,-00.3367,+10.156,+00.184,+00.701,-00.206474,-00.131742,-00.073777*6A
"
1712237360.4264474,-114.632,+088.255,+153.067,-00.1982,+00.2238,-00.3363,+09.944,+00.127,+00.149,-00.201116,-00.154151,-00.063299,"$VNYMR,-114.632,+088.255,+153.067,-00.1982,+00.2238,-00.3363,+09.944,+00.127,+00.149,-00.201116,-00.154151,-00.063299*6A
"
1712237360.4576433,-115.391,+088.488,+152.050,-00.2005,+00.2203,-00.3244,+09.680,+01.247,-01.856,-00.142260,-00.150888,-00.064189,"$VNYMR,-115.391,+088.488,+152.050,-00.2005,+00.2203,-00.3244,+09.680,+01.247,-01.856,-00.142260,-00.150888,-00.064189*64
"
1712237360.4800458,-114.788,+088.604,+152.602,-00.2047,+00.2311,-00.3328,+08.394,+01.837,-03.692,-00.002067,+00.010044,-00.021450,"$VNYMR,-114.788,+088.604,+152.602,-00.2047,+00.2311,-00.3328,+08.394,+01.837,-03.692,-00.002067,+00.010044,-00.021450*62
"
1712237360.5018718,-113.938,+088.450,+153.313,-00.2004,+00.2274,-00.3352,+08.792,+00.119,-02.380,-00.176318,+00.164251,+00.062832,"$VNYMR,-113.938,+088.450,+153.313,-00.2004,+00.2274,-00.3352,+08.792,+00.119,-02.380,-00.176318,+00.164251,+00.062832*6A
"
1712237360.5266325,-113.281,+088.172,+153.510,-00.2016,+00.2227,-00.3338,+12.063,-01.051,-00.253,-00.408908,+00.161083,+00.066705,"$VNYMR,-113.281,+088.172,+153.510,-00.2016,+00.2227,-00.3338,+12.063,-01.051,-00.253,-00.408908,+00.161083,+00.066705*6F
"
1712237360.5515914,-111.928,+088.014,+154.155,-00.2038,+00.2228,-00.3219,+09.680,-01.695,+01.158,-00.545496,+00.072578,-00.014824,"$VNYMR,-111.928,+088.014,+154.155,-00.2038,+00.2228,-00.3219,+09.680,-01.695,+01.158,-00.545496,+00.072578,-00.014824*68
"
1712237360.5765846,-108.451,+088.053,+156.791,-00.2037,+00.2251,-00.3326,+09.934,-01.239,+00.921,-00.587967,-00.037949,-00.143402,"$VNYMR,-108.451,+088.053,+156.791,-00.2037,+00.2251,-00.3326,+09.934,-01.239,+00.921,-00.587967,-00.037949,-00.143402*6A
"
1712237360.6050322,-100.311,+088.325,+164.152,-00.2051,+00.2145,-00.3166,+09.941,-01.063,+01.614,-00.500768,-00.169595,-00.291007,"$VNYMR,-100.311,+088.325,+164.152,-00.2051,+00.2145,-00.3166,+09.941,-01.063,+01.614,-00.500768,-00.169595,-00.291007*68
"
1712237360.6271389,-081.932,+088.751,-178.105,-00.2061,+00.2169,-00.3140,+10.294,+00.064,+01.328,-00.399817,-00.304263,-00.397610,"$VNYMR,-081.932,+088.751,-178.105,-00.2061,+00.2169,-00.3140,+10.294,+00.064,+01.328,-00.399817,-00.304263,-00.397610*6C
"
1712237360.6518185,-040.138,+089.063,-136.820,-00.2086,+00.2051,-00.3260,+11.308,+00.452,+01.861,-00.320535,-00.457527,-00.434775,"$VNYMR,-040.138,+089.063,-136.820,-00.2086,+00.2051,-00.3260,+11.308,+00.452,+01.861,-00.320535,-00.457527,-00.434775*65
"
1712237360.6772156,+009.639,+088.784,-087.469,-00.2055,+00.1932,-00.3083,+10.859,+02.194,+00.547,-00.278055,-00.554379,-00.368506,"$VNYMR,+009.639,+088.784,-087.469,-00.2055,+00.1932,-00.3083,+10.859,+02.194,+00.547,-00.278055,-00.554379,-00.368506*60
"
1712237360.701641,+035.036,+088.155,-062.474,-00.2067,+00.1897,-00.2910,+10.005,+02.155,-00.680,-00.272157,-00.564490,-00.237166,"$VNYMR,+035.036,+088.155,-062.474,-00.2067,+00.1897,-00.2910,+10.005,+02.155,-00.680,-00.272157,-00.564490,-00.237166*67
"
1712237360.7279522,+048.296,+087.545,-049.610,-00.2046,+00.1826,-00.2908,+08.900,+01.830,-01.764,-00.273684,-00.488006,-00.106457,"$VNYMR,+048.296,+087.545,-049.610,-00.2046,+00.1826,-00.2908,+08.900,+01.830,-01.764,-00.273684,-00.488006,-00.106457*66
"
1712237360.7516534,+056.218,+087.094,-042.101,-00.2034,+00.1837,-00.2787,+08.427,+01.021,-02.467,-00.286442,-00.343175,-00.012097,"$VNYMR,+056.218,+087.094,-042.101,-00.2034,+00.1837,-00.2787,+08.427,+01.021,-02.467,-00.286442,-00.343175,-00.012097*6E
"
1712237360.7794352,+060.576,+086.838,-038.159,-00.2020,+00.2014,-00.2775,+08.324,-00.234,-02.667,-00.292899,-00.189973,+00.011245,"$VNYMR,+060.576,+086.838,-038.159,-00.2020,+00.2014,-00.2775,+08.324,-00.234,-02.667,-00.292899,-00.189973,+00.011245*63
"
1712237360.8037212,+061.934,+086.726,-037.234,-00.1989,+00.1884,-00.2892,+08.422,-00.823,-02.084,-00.304915,-00.021445,-00.023089,"$VNYMR,+061.934,+086.726,-037.234,-00.1989,+00.1884,-00.2892,+08.422,-00.823,-02.084,-00.304915,-00.021445,-00.023089*61
"
1712237360.8270247,+059.546,+086.738,-040.061,-00.2012,+00.1837,-00.2800,+09.428,-01.459,-01.312,-00.310475,+00.114206,-00.106245,"$VNYMR,+059.546,+086.738,-040.061,-00.2012,+00.1837,-00.2800,+09.428,-01.459,-01.312,-00.310475,+00.114206,-00.106245*6B
"
1712237360.8516314,+054.108,+086.724,-045.932,-00.2070,+00.1731,-00.2695,+10.519,-01.164,+00.241,-00.304436,+00.137888,-00.204617,"$VNYMR,+054.108,+086.724,-045.932,-00.2070,+00.1731,-00.2695,+10.519,-01.164,+00.241,-00.304436,+00.137888,-00.204617*6D
"
1712237360.8768733,+048.263,+086.565,-052.193,-00.2057,+00.1802,-00.2775,+11.020,-00.508,+01.693,-00.293120,+00.076190,-00.260341,"$VNYMR,+048.263,+086.565,-052.193,-00.2057,+00.1802,-00.2775,+11.020,-00.508,+01.693,-00.293120,+00.076190,-00.260341*6F
"
1712237360.9016452,+044.762,+086.255,-056.092,-00.2060,+00.1649,-00.2760,+10.590,+00.524,+02.589,-00.277883,-00.061432,-00.259395,"$VNYMR,+044.762,+086.255,-056.092,-00.2060,+00.1649,-00.2760,+10.590,+00.524,+02.589,-00.277883,-00.061432,-00.259395*6E
"
1712237360.9279084,+044.815,+085.854,-056.435,-00.2092,+00.1732,-00.2736,+10.222,+01.061,+02.366,-00.275289,-00.223472,-00.205069,"$VNYMR,+044.815,+085.854,-056.435,-00.2092,+00.1732,-00.2736,+10.222,+01.061,+02.366,-00.275289,-00.223472,-00.205069*64
"
1712237360.9531322,+047.942,+085.413,-053.713,-00.2071,+00.1684,-00.2721,+10.395,+01.258,+01.962,-00.276475,-00.368833,-00.121685,"$VNYMR,+047.942,+085.413,-053.713,-00.2071,+00.1684,-00.2721,+10.395,+01.258,+01.962,-00.276475,-00.368833,-00.121685*66
"
1712237360.979373,+052.936,+084.956,-049.137,-00.2051,+00.1566,-00.2665,+10.580,+01.149,+00.955,-00.282161,-00.456320,-00.032615,"$VNYMR,+052.936,+084.956,-049.137,-00.2051,+00.1566,-00.2665,+10.580,+01.149,+00.955,-00.282161,-00.456320,-00.032615*6D
"
1712237361.0015392,+058.237,+084.508,-044.268,-00.2053,+00.1459,-00.2477,+10.315,+00.451,-00.745,-00.284490,-00.442954,+00.023561,"$VNYMR,+058.237,+084.508,-044.268,-00.2053,+00.1459,-00.2477,+10.315,+00.451,-00.745,-00.284490,-00.442954,+00.023561*69
"
1712237361.028875,+062.479,+084.114,-040.464,-00.1996,+00.1553,-00.2502,+08.834,-00.335,-02.104,-00.294166,-00.367617,+00.028070,"$VNYMR,+062.479,+084.114,-040.464,-00.1996,+00.1553,-00.2502,+08.834,-00.335,-02.104,-00.294166,-00.367617,+00.028070*68
"
1712237361.0514755,+064.939,+083.818,-038.448,-00.2019,+00.1518,-00.2463,+07.701,-00.726,-02.492,-00.305778,-00.203416,-00.008158,"$VNYMR,+064.939,+083.818,-038.448,-00.2019,+00.1518,-00.2463,+07.701,-00.726,-02.492,-00.305778,-00.203416,-00.008158*65
"
1712237361.0793986,+065.266,+083.687,-038.574,-00.1996,+00.1541,-00.2408,+07.703,-00.765,-02.661,-00.319979,-00.012223,-00.058628,"$VNYMR,+065.266,+083.687,-038.574,-00.1996,+00.1541,-00.2408,+07.703,-00.765,-02.661,-00.319979,-00.012223,-00.058628*61
"
1712237361.101509,+063.694,+083.710,-040.605,-00.1974,+00.1529,-00.2500,+08.556,-00.486,-02.100,-00.332258,+00.157662,-00.095940,"$VNYMR,+063.694,+083.710,-040.605,-00.1974,+00.1529,-00.2500,+08.556,-00.486,-02.100,-00.332258,+00.157662,-00.095940*65
"
1712237361.129294,+060.593,+083.858,-044.171,-00.2019,+00.1518,-00.2516,+10.132,+00.191,-00.979,-00.338869,+00.276008,-00.102137,"$VNYMR,+060.593,+083.858,-044.171,-00.2019,+00.1518,-00.2516,+10.132,+00.191,-00.979,-00.338869,+00.276008,-00.102137*64
"
1712237361.1540713,+057.079,+084.060,-048.151,-00.2044,+00.1341,-00.2368,+10.701,+00.840,+00.686,-00.339670,+00.272784,-00.054358,"$VNYMR,+057.079,+084.060,-048.151,-00.2044,+00.1341,-00.2368,+10.701,+00.840,+00.686,-00.339670,+00.272784,-00.054358*65
"
1712237361.1765459,+054.569,+084.253,-051.135,-00.2033,+00.1364,-00.2582,+10.300,+01.061,+01.756,-00.341932,+00.179947,+00.016572,"$VNYMR,+054.569,+084.253,-051.135,-00.2033,+00.1364,-00.2582,+10.300,+01.061,+01.756,-00.341932,+00.179947,+00.016572*6C
"
1712237361.20175,+054.006,+084.406,-052.182,-00.2043,+00.1376,-00.2449,+10.317,+00.942,+02.298,-00.343166,+00.024577,+00.085411,"$VNYMR,+054.006,+084.406,-052.182,-00.2043,+00.1376,-00.2449,+10.317,+00.942,+02.298,-00.343166,+00.024577,+00.085411*63
"
1712237361.2265697,+055.669,+084.494,-051.009,-00.2041,+00.1506,-00.2424,+10.313,+00.487,+02.216,-00.332618,-00.108607,+00.134631,"$VNYMR,+055.669,+084.494,-051.009,-00.2041,+00.1506,-00.2424,+10.313,+00.487,+02.216,-00.332618,-00.108607,+00.134631*67
"
1712237361.253818,+059.295,+084.465,-047.873,-00.2021,+00.1411,-00.2475,+10.648,-00.099,+01.551,-00.329915,-00.249048,+00.143969,"$VNYMR,+059.295,+084.465,-047.873,-00.2021,+00.1411,-00.2475,+10.648,-00.099,+01.551,-00.329915,-00.249048,+00.143969*65
"
1712237361.276455,+063.647,+084.309,-044.005,-00.1988,+00.1351,-00.2392,+10.460,-00.576,+00.426,-00.318341,-00.308014,+00.113490,"$VNYMR,+063.647,+084.309,-044.005,-00.1988,+00.1351,-00.2392,+10.460,-00.576,+00.426,-00.318341,-00.308014,+00.113490*62
"
1712237361.3012588,+067.244,+084.084,-040.878,-00.1977,+00.1387,-00.2325,+09.600,-00.699,-01.613,-00.316047,-00.254880,+00.061960,"$VNYMR,+067.244,+084.084,-040.878,-00.1977,+00.1387,-00.2325,+09.600,-00.699,-01.613,-00.316047,-00.254880,+00.061960*6B
"
1712237361.3267536,+069.317,+083.899,-039.278,-00.1956,+00.1327,-00.2377,+08.205,-00.394,-02.353,-00.325809,-00.134310,+00.020103,"$VNYMR,+069.317,+083.899,-039.278,-00.1956,+00.1327,-00.2377,+08.205,-00.394,-02.353,-00.325809,-00.134310,+00.020103*6C
"
1712237361.3515751,+069.754,+083.866,-039.320,-00.1944,+00.1351,-00.2230,+07.906,+00.137,-02.596,-00.338894,+00.028583,+00.011651,"$VNYMR,+069.754,+083.866,-039.320,-00.1944,+00.1351,-00.2230,+07.906,+00.137,-02.596,-00.338894,+00.028583,+00.011651*6A
"
1712237361.376493,+068.841,+084.047,-040.726,-00.1965,+00.1398,-00.2258,+08.339,+00.757,-02.499,-00.352266,+00.208607,+00.049986,"$VNYMR,+068.841,+084.047,-040.726,-00.1965,+00.1398,-00.2258,+08.339,+00.757,-02.499,-00.352266,+00.208607,+00.049986*63
"
1712237361.401313,+067.070,+084.447,-043.002,-00.1976,+00.1434,-00.2433,+09.172,+01.185,-01.472,-00.364103,+00.339276,+00.129973,"$VNYMR,+067.070,+084.447,-043.002,-00.1976,+00.1434,-00.2433,+09.172,+01.185,-01.472,-00.364103,+00.339276,+00.129973*63
"
1712237361.426522,+065.171,+085.014,-045.422,-00.1968,+00.1268,-00.2417,+10.197,+00.909,-00.373,-00.366336,+00.377870,+00.225893,"$VNYMR,+065.171,+085.014,-045.422,-00.1968,+00.1268,-00.2417,+10.197,+00.909,-00.373,-00.366336,+00.377870,+00.225893*6D
"
1712237361.452719,+064.128,+085.655,-047.001,-00.2012,+00.1281,-00.2326,+10.445,+00.986,+01.133,-00.376837,+00.320400,+00.306934,"$VNYMR,+064.128,+085.655,-047.001,-00.2012,+00.1281,-00.2326,+10.445,+00.986,+01.133,-00.376837,+00.320400,+00.306934*63
"
1712237361.4892895,+064.790,+086.258,-046.876,-00.1978,+00.1304,-00.2458,+10.679,-00.098,+02.090,-00.371548,+00.213682,+00.336074,"$VNYMR,+064.790,+086.258,-046.876,-00.1978,+00.1304,-00.2458,+10.679,-00.098,+02.090,-00.371548,+00.213682,+00.336074*62
"
1712237361.504913,+067.842,+086.716,-044.345,-00.2000,+00.1328,-00.2366,+10.363,-00.712,+01.937,-00.354479,+00.071244,+00.303412,"$VNYMR,+067.842,+086.716,-044.345,-00.2000,+00.1328,-00.2366,+10.363,-00.712,+01.937,-00.354479,+00.071244,+00.303412*64
"
1712237361.526548,+072.890,+086.965,-039.794,-00.1962,+00.1552,-00.2433,+10.160,-01.095,+01.488,-00.335231,-00.049143,+00.228830,"$VNYMR,+072.890,+086.965,-039.794,-00.1962,+00.1552,-00.2433,+10.160,-01.095,+01.488,-00.335231,-00.049143,+00.228830*64
"
1712237361.553353,+078.314,+087.005,-034.842,-00.1932,+00.1421,-00.2510,+10.450,-01.078,+00.801,-00.317247,-00.121797,+00.138288,"$VNYMR,+078.314,+087.005,-034.842,-00.1932,+00.1421,-00.2510,+10.450,-01.078,+00.801,-00.317247,-00.121797,+00.138288*6D
"
1712237361.5764048,+082.291,+086.940,-031.319,-00.1920,+00.1433,-00.2470,+10.101,-00.640,-00.124,-00.309967,-00.118175,+00.072434,"$VNYMR,+082.291,+086.940,-031.319,-00.1920,+00.1433,-00.2470,+10.101,-00.640,-00.124,-00.309967,-00.118175,+00.072434*67
"
1712237361.6016276,+084.622,+086.916,-029.439,-00.1911,+00.1338,-00.2268,+09.238,+00.447,-01.399,-00.311179,-00.023623,+00.069039,"$VNYMR,+084.622,+086.916,-029.439,-00.1911,+00.1338,-00.2268,+09.238,+00.447,-01.399,-00.311179,-00.023623,+00.069039*64
"
1712237361.6266263,+086.406,+087.036,-028.119,-00.1911,+00.1350,-00.2375,+08.777,+01.082,-01.816,-00.324250,+00.093318,+00.126504,"$VNYMR,+086.406,+087.036,-028.119,-00.1911,+00.1350,-00.2375,+08.777,+01.082,-01.816,-00.324250,+00.093318,+00.126504*6D
"
1712237361.651482,+088.985,+087.358,-026.021,-00.1899,+00.1385,-00.2401,+08.499,+01.482,-01.581,-00.339540,+00.204109,+00.221814,"$VNYMR,+088.985,+087.358,-026.021,-00.1899,+00.1385,-00.2401,+08.499,+01.482,-01.581,-00.339540,+00.204109,+00.221814*6F
"
1712237361.6775308,+094.432,+087.874,-021.075,-00.1930,+00.1516,-00.2351,+09.130,+01.489,-01.220,-00.348846,+00.299898,+00.334066,"$VNYMR,+094.432,+087.874,-021.075,-00.1930,+00.1516,-00.2351,+09.130,+01.489,-01.220,-00.348846,+00.299898,+00.334066*6C
"
1712237361.702739,+107.677,+088.490,-008.345,-00.1909,+00.1468,-00.2456,+10.041,+00.970,-00.441,-00.358884,+00.351090,+00.424791,"$VNYMR,+107.677,+088.490,-008.345,-00.1909,+00.1468,-00.2456,+10.041,+00.970,-00.441,-00.358884,+00.351090,+00.424791*62
"
1712237361.7289386,+139.098,+088.923,+022.559,-00.1898,+00.1444,-00.2442,+10.646,-00.071,+00.578,-00.352292,+00.338642,+00.456177,"$VNYMR,+139.098,+088.923,+022.559,-00.1898,+00.1444,-00.2442,+10.646,-00.071,+00.578,-00.352292,+00.338642,+00.456177*62
"
1712237361.7541819,+178.137,+088.827,+061.103,-00.1920,+00.1457,-00.2390,+10.609,-01.022,+01.481,-00.331459,+00.266885,+00.408420,"$VNYMR,+178.137,+088.827,+061.103,-00.1920,+00.1457,-00.2390,+10.609,-01.022,+01.481,-00.331459,+00.266885,+00.408420*6F
"
1712237361.7764177,-162.739,+088.442,+079.767,-00.1886,+00.1491,-00.2575,+09.978,-01.420,+01.615,-00.306070,+00.165372,+00.314420,"$VNYMR,-162.739,+088.442,+079.767,-00.1886,+00.1491,-00.2575,+09.978,-01.420,+01.615,-00.306070,+00.165372,+00.314420*68
"
1712237361.8016558,-156.175,+088.112,+085.915,-00.1919,+00.1516,-00.2404,+10.186,-01.451,+01.259,-00.277696,+00.073191,+00.199731,"$VNYMR,-156.175,+088.112,+085.915,-00.1919,+00.1516,-00.2404,+10.186,-01.451,+01.259,-00.277696,+00.073191,+00.199731*68
"
1712237361.82725,-154.481,+087.919,+087.231,-00.1894,+00.1633,-00.2444,+10.394,-01.017,+00.905,-00.253008,+00.000561,+00.101173,"$VNYMR,-154.481,+087.919,+087.231,-00.1894,+00.1633,-00.2444,+10.394,-01.017,+00.905,-00.253008,+00.000561,+00.101173*6E
"
1712237361.8547976,-154.671,+087.810,+086.689,-00.1849,+00.1680,-00.2509,+10.408,+00.072,+00.081,-00.242348,-00.022509,+00.065987,"$VNYMR,-154.671,+087.810,+086.689,-00.1849,+00.1680,-00.2509,+10.408,+00.072,+00.081,-00.242348,-00.022509,+00.065987*61
"
1712237361.877399,-155.008,+087.695,+086.008,-00.1863,+00.1515,-00.2481,+09.983,+00.940,-00.503,-00.237706,-00.007330,+00.099400,"$VNYMR,-155.008,+087.695,+086.008,-00.1863,+00.1515,-00.2481,+09.983,+00.940,-00.503,-00.237706,-00.007330,+00.099400*63
"
1712237361.9015307,-153.844,+087.488,+086.827,-00.1862,+00.1574,-00.2428,+09.133,+01.479,-00.905,-00.239290,+00.042221,+00.183095,"$VNYMR,-153.844,+087.488,+086.827,-00.1862,+00.1574,-00.2428,+09.133,+01.479,-00.905,-00.239290,+00.042221,+00.183095*64
"
1712237361.9272673,-150.909,+087.138,+089.407,-00.1842,+00.1491,-00.2480,+09.046,+01.455,-01.148,-00.244946,+00.115104,+00.289896,"$VNYMR,-150.909,+087.138,+089.407,-00.1842,+00.1491,-00.2480,+09.046,+01.455,-01.148,-00.244946,+00.115104,+00.289896*68
"
1712237361.9515004,-146.772,+086.640,+093.183,-00.1828,+00.1609,-00.2414,+09.254,+00.995,-01.083,-00.246649,+00.197253,+00.377541,"$VNYMR,-146.772,+086.640,+093.183,-00.1828,+00.1609,-00.2414,+09.254,+00.995,-01.083,-00.246649,+00.197253,+00.377541*6D
"
1712237361.979919,-142.340,+086.037,+097.250,-00.1837,+00.1727,-00.2429,+09.866,-00.012,-00.781,-00.247735,+00.260018,+00.410673,"$VNYMR,-142.340,+086.037,+097.250,-00.1837,+00.1727,-00.2429,+09.866,-00.012,-00.781,-00.247735,+00.260018,+00.410673*68
"
1712237362.0028436,-138.287,+085.422,+100.947,-00.1815,+00.1715,-00.2508,+09.995,-00.927,-00.091,-00.236615,+00.282785,+00.370335,"$VNYMR,-138.287,+085.422,+100.947,-00.1815,+00.1715,-00.2508,+09.995,-00.927,-00.091,-00.236615,+00.282785,+00.370335*65
"
1712237362.0297005,-134.866,+084.894,+104.034,-00.1793,+00.1714,-00.2533,+09.891,-01.481,+00.528,-00.216235,+00.265417,+00.276154,"$VNYMR,-134.866,+084.894,+104.034,-00.1793,+00.1714,-00.2533,+09.891,-01.481,+00.528,-00.216235,+00.265417,+00.276154*6E
"
1712237362.0515523,-132.126,+084.518,+106.477,-00.1815,+00.1691,-00.2454,+10.015,-01.476,+01.048,-00.189198,+00.212019,+00.159184,"$VNYMR,-132.126,+084.518,+106.477,-00.1815,+00.1691,-00.2454,+10.015,-01.476,+01.048,-00.189198,+00.212019,+00.159184*6E
"
1712237362.07977,-130.248,+084.316,+108.102,-00.1827,+00.1656,-00.2574,+10.214,-01.085,+01.444,-00.159097,+00.125855,+00.059114,"$VNYMR,-130.248,+084.316,+108.102,-00.1827,+00.1656,-00.2574,+10.214,-01.085,+01.444,-00.159097,+00.125855,+00.059114*60
"
1712237362.1014817,-129.280,+084.254,+108.861,-00.1826,+00.1703,-00.2535,+10.546,-00.282,+01.304,-00.131375,+00.040218,+00.001462,"$VNYMR,-129.280,+084.254,+108.861,-00.1826,+00.1703,-00.2535,+10.546,-00.282,+01.304,-00.131375,+00.040218,+00.001462*6C
"
1712237362.1274428,-129.378,+084.258,+108.589,-00.1835,+00.1822,-00.2497,+10.471,+00.516,+00.935,-00.117871,-00.033281,+00.007652,"$VNYMR,-129.378,+084.258,+108.589,-00.1835,+00.1822,-00.2497,+10.471,+00.516,+00.935,-00.117871,-00.033281,+00.007652*64
"
1712237362.1525893,-130.349,+084.236,+107.463,-00.1792,+00.1738,-00.2627,+10.003,+01.129,+00.205,-00.108550,-00.069457,+00.061846,"$VNYMR,-130.349,+084.236,+107.463,-00.1792,+00.1738,-00.2627,+10.003,+01.129,+00.205,-00.108550,-00.069457,+00.061846*6A
"
1712237362.1771827,-131.749,+084.117,+105.916,-00.1758,+00.1773,-00.2546,+09.510,+01.115,-00.707,-00.105940,-00.056355,+00.140723,"$VNYMR,-131.749,+084.117,+105.916,-00.1758,+00.1773,-00.2546,+09.510,+01.115,-00.707,-00.105940,-00.056355,+00.140723*69
"
1712237362.2013366,-132.897,+083.887,+104.624,-00.1805,+00.1667,-00.2413,+09.282,+00.709,-01.002,-00.104079,-00.013596,+00.201736,"$VNYMR,-132.897,+083.887,+104.624,-00.1805,+00.1667,-00.2413,+09.282,+00.709,-01.002,-00.104079,-00.013596,+00.201736*61
"
1712237362.2273788,-133.210,+083.575,+104.167,-00.1759,+00.1737,-00.2572,+09.144,-00.058,-01.274,-00.101247,+00.060904,+00.219707,"$VNYMR,-133.210,+083.575,+104.167,-00.1759,+00.1737,-00.2572,+09.144,-00.058,-01.274,-00.101247,+00.060904,+00.219707*6A
"
1712237362.2542567,-132.493,+083.254,+104.736,-00.1804,+00.1703,-00.2494,+09.172,-00.885,-01.026,-00.098524,+00.140577,+00.184100,"$VNYMR,-132.493,+083.254,+104.736,-00.1804,+00.1703,-00.2494,+09.172,-00.885,-01.026,-00.098524,+00.140577,+00.184100*6F
"
1712237362.2800386,-130.853,+082.995,+106.234,-00.1777,+00.1962,-00.2575,+09.357,-01.184,-00.555,-00.086474,+00.193901,+00.102156,"$VNYMR,-130.853,+082.995,+106.234,-00.1777,+00.1962,-00.2575,+09.357,-01.184,-00.555,-00.086474,+00.193901,+00.102156*6A
"
1712237362.3023555,-128.711,+082.849,+108.252,-00.1758,+00.1808,-00.2639,+09.771,-01.333,+00.113,-00.066649,+00.210121,+00.003289,"$VNYMR,-128.711,+082.849,+108.252,-00.1758,+00.1808,-00.2639,+09.771,-01.333,+00.113,-00.066649,+00.210121,+00.003289*60
"
1712237362.3273718,-126.456,+082.829,+110.413,-00.1770,+00.1738,-00.2599,+10.252,-00.896,+00.828,-00.042888,+00.173727,-00.083851,"$VNYMR,-126.456,+082.829,+110.413,-00.1770,+00.1738,-00.2599,+10.252,-00.896,+00.828,-00.042888,+00.173727,-00.083851*67
"
1712237362.352543,-124.579,+082.916,+112.238,-00.1804,+00.1703,-00.2494,+10.422,-00.208,+01.433,-00.017116,+00.093170,-00.129343,"$VNYMR,-124.579,+082.916,+112.238,-00.1804,+00.1703,-00.2494,+10.422,-00.208,+01.433,-00.017116,+00.093170,-00.129343*66
"
1712237362.3798697,-123.574,+083.069,+113.228,-00.1772,+00.1667,-00.2638,+10.297,+00.460,+01.443,+00.003278,-00.005978,-00.126128,"$VNYMR,-123.574,+083.069,+113.228,-00.1772,+00.1667,-00.2638,+10.297,+00.460,+01.443,+00.003278,-00.005978,-00.126128*65
"
1712237362.4024243,-123.678,+083.237,+113.141,-00.1824,+00.1821,-00.2576,+10.105,+00.847,+01.105,+00.017035,-00.090888,-00.085215,"$VNYMR,-123.678,+083.237,+113.141,-00.1824,+00.1821,-00.2576,+10.105,+00.847,+01.105,+00.017035,-00.090888,-00.085215*69
"
1712237362.4311817,-124.828,+083.374,+112.039,-00.1814,+00.1774,-00.2575,+10.091,+01.374,+00.521,+00.041151,-00.146889,-00.030623,"$VNYMR,-124.828,+083.374,+112.039,-00.1814,+00.1774,-00.2575,+10.091,+01.374,+00.521,+00.041151,-00.146889,-00.030623*62
"
1712237362.4535825,-126.611,+083.454,+110.362,-00.1781,+00.1750,-00.2600,+09.907,+00.870,-00.105,+00.084988,-00.154020,+00.013774,"$VNYMR,-126.611,+083.454,+110.362,-00.1781,+00.1750,-00.2600,+09.907,+00.870,-00.105,+00.084988,-00.154020,+00.013774*67
"
1712237362.477283,-128.327,+083.506,+108.775,-00.1793,+00.1726,-00.2654,+09.756,-00.663,-00.592,+00.056312,-00.119776,+00.000467,"$VNYMR,-128.327,+083.506,+108.775,-00.1793,+00.1726,-00.2654,+09.756,-00.663,-00.592,+00.056312,-00.119776,+00.000467*65
"
1712237362.5024295,-129.165,+083.580,+108.107,-00.1803,+00.1762,-00.2454,+09.017,-00.973,-00.976,+00.149063,-00.055992,-00.058661,"$VNYMR,-129.165,+083.580,+108.107,-00.1803,+00.1762,-00.2454,+09.017,-00.973,-00.976,+00.149063,-00.055992,-00.058661*6B
"
1712237362.5296943,-128.842,+083.736,+108.750,-00.1782,+00.1679,-00.2599,+09.025,-00.660,-00.983,+00.281382,+00.013956,-00.148154,"$VNYMR,-128.842,+083.736,+108.750,-00.1782,+00.1679,-00.2599,+09.025,-00.660,-00.983,+00.281382,+00.013956,-00.148154*60
"
1712237362.5523384,-127.453,+083.980,+110.675,-00.1837,+00.1703,-00.2602,+09.573,+00.186,-00.596,+00.455223,+00.055575,-00.224699,"$VNYMR,-127.453,+083.980,+110.675,-00.1837,+00.1703,-00.2602,+09.573,+00.186,-00.596,+00.455223,+00.055575,-00.224699*61
"
1712237362.5773537,-125.245,+084.278,+113.717,-00.1824,+00.1845,-00.2576,+10.123,+01.421,+00.132,+00.688990,+00.065950,-00.263389,"$VNYMR,-125.245,+084.278,+113.717,-00.1824,+00.1845,-00.2576,+10.123,+01.421,+00.132,+00.688990,+00.065950,-00.263389*62
"
1712237362.6039762,-122.916,+084.586,+117.253,-00.1847,+00.1775,-00.2684,+10.392,+02.168,+00.796,+00.956507,+00.031092,-00.253840,"$VNYMR,-122.916,+084.586,+117.253,-00.1847,+00.1775,-00.2684,+10.392,+02.168,+00.796,+00.956507,+00.031092,-00.253840*66
"
1712237362.6272087,-121.308,+084.881,+120.439,-00.1846,+00.1810,-00.2737,+10.210,+01.953,+01.425,+01.197531,-00.037941,-00.208519,"$VNYMR,-121.308,+084.881,+120.439,-00.1846,+00.1810,-00.2737,+10.210,+01.953,+01.425,+01.197531,-00.037941,-00.208519*6B
"
1712237362.652246,-121.057,+085.159,+122.568,-00.1902,+00.1799,-00.2673,+10.354,+01.393,+01.695,+01.381913,-00.121990,-00.147838,"$VNYMR,-121.057,+085.159,+122.568,-00.1902,+00.1799,-00.2673,+10.354,+01.393,+01.695,+01.381913,-00.121990,-00.147838*6D
"
1712237362.6773214,-122.399,+085.434,+123.296,-00.1889,+00.1882,-00.2794,+10.262,+00.087,+01.258,+01.460949,-00.195487,-00.102543,"$VNYMR,-122.399,+085.434,+123.296,-00.1889,+00.1882,-00.2794,+10.262,+00.087,+01.258,+01.460949,-00.195487,-00.102543*6C
"
1712237362.7046263,-124.825,+085.707,+122.938,-00.1889,+00.1882,-00.2767,+10.155,-00.608,+00.812,+01.417719,-00.224388,-00.083636,"$VNYMR,-124.825,+085.707,+122.938,-00.1889,+00.1882,-00.2767,+10.155,-00.608,+00.812,+01.417719,-00.224388,-00.083636*61
"
1712237362.727245,-127.566,+085.997,+122.200,-00.1919,+00.2060,-00.2824,+09.850,-00.828,+00.339,+01.386748,-00.222288,-00.107546,"$VNYMR,-127.566,+085.997,+122.200,-00.1919,+00.2060,-00.2824,+09.850,-00.828,+00.339,+01.386748,-00.222288,-00.107546*67
"
1712237362.752103,-129.848,+086.325,+121.924,-00.1864,+00.2023,-00.2928,+09.477,-00.811,+00.056,+01.407811,-00.199613,-00.160476,"$VNYMR,-129.848,+086.325,+121.924,-00.1864,+00.2023,-00.2928,+09.477,-00.811,+00.056,+01.407811,-00.199613,-00.160476*65
"
1712237362.7771335,-130.853,+086.701,+122.961,-00.1920,+00.2036,-00.2957,+09.348,-01.041,-00.052,+01.430692,-00.161880,-00.223369,"$VNYMR,-130.853,+086.701,+122.961,-00.1920,+00.2036,-00.2957,+09.348,-01.041,-00.052,+01.430692,-00.161880,-00.223369*60
"
1712237362.8024743,-129.957,+087.117,+125.878,-00.1942,+00.2013,-00.2878,+09.790,-01.304,+00.129,+01.390087,-00.123229,-00.278469,"$VNYMR,-129.957,+087.117,+125.878,-00.1942,+00.2013,-00.2878,+09.790,-01.304,+00.129,+01.390087,-00.123229,-00.278469*6D
"
1712237362.8272552,-126.846,+087.548,+130.901,-00.1930,+00.2084,-00.3079,+09.692,-00.969,+00.428,+01.297744,-00.097569,-00.306235,"$VNYMR,-126.846,+087.548,+130.901,-00.1930,+00.2084,-00.3079,+09.692,-00.969,+00.428,+01.297744,-00.097569,-00.306235*66
"
1712237362.8538685,-121.688,+087.946,+137.836,-00.1964,+00.2061,-00.3053,+10.181,-00.122,+00.791,+01.211789,-00.088415,-00.287480,"$VNYMR,-121.688,+087.946,+137.836,-00.1964,+00.2061,-00.3053,+10.181,-00.122,+00.791,+01.211789,-00.088415,-00.287480*6F
"
1712237362.8800583,-115.609,+088.282,+145.598,-00.1994,+00.2191,-00.3083,+09.972,+00.373,+00.942,+01.158621,-00.104853,-00.229801,"$VNYMR,-115.609,+088.282,+145.598,-00.1994,+00.2191,-00.3083,+09.972,+00.373,+00.942,+01.158621,-00.104853,-00.229801*66
"
1712237362.9030285,-110.503,+088.561,+152.305,-00.1981,+00.2286,-00.3204,+09.986,+00.374,+01.115,+01.088727,-00.123261,-00.152182,"$VNYMR,-110.503,+088.561,+152.305,-00.1981,+00.2286,-00.3204,+09.986,+00.374,+01.115,+01.088727,-00.123261,-00.152182*67
"
1712237362.9272904,-108.234,+088.808,+156.064,-00.2028,+00.2145,-00.3245,+10.032,+00.121,+00.988,+01.010232,-00.151600,-00.080874,"$VNYMR,-108.234,+088.808,+156.064,-00.2028,+00.2145,-00.3245,+10.032,+00.121,+00.988,+01.010232,-00.151600,-00.080874*66
"
1712237362.9524386,-109.436,+089.050,+156.245,-00.2015,+00.2251,-00.3152,+10.143,-00.419,+00.942,+00.934650,-00.169080,-00.042651,"$VNYMR,-109.436,+089.050,+156.245,-00.2015,+00.2251,-00.3152,+10.143,-00.419,+00.942,+00.934650,-00.169080,-00.042651*6E
"
1712237362.976933,-112.657,+089.302,+154.301,-00.2017,+00.2180,-00.3311,+09.981,-01.135,+00.578,+00.863319,-00.178394,-00.052230,"$VNYMR,-112.657,+089.302,+154.301,-00.2017,+00.2180,-00.3311,+09.981,-01.135,+00.578,+00.863319,-00.178394,-00.052230*60
"
1712237363.002197,-113.005,+089.575,+155.127,-00.2039,+00.2180,-00.3205,+09.628,-01.463,+00.453,+00.792740,-00.169129,-00.099937,"$VNYMR,-113.005,+089.575,+155.127,-00.2039,+00.2180,-00.3205,+09.628,-01.463,+00.453,+00.792740,-00.169129,-00.099937*6D
"
1712237363.0269966,-078.738,+089.843,-169.525,-00.2025,+00.2298,-00.3260,+09.646,-01.584,+00.161,+00.731224,-00.159110,-00.170558,"$VNYMR,-078.738,+089.843,-169.525,-00.2025,+00.2298,-00.3260,+09.646,-01.584,+00.161,+00.731224,-00.159110,-00.170558*6B
"
1712237363.0520766,+009.984,+089.670,-079.801,-00.2003,+00.2286,-00.3325,+09.675,-01.025,+00.090,+00.682991,-00.137605,-00.229925,"$VNYMR,+009.984,+089.670,-079.801,-00.2003,+00.2286,-00.3325,+09.675,-01.025,+00.090,+00.682991,-00.137605,-00.229925*63
"
1712237363.0769317,+019.054,+089.277,-069.777,-00.2058,+00.2311,-00.3382,+09.909,-00.316,+00.064,+00.657775,-00.121518,-00.255616,"$VNYMR,+019.054,+089.277,-069.777,-00.2058,+00.2311,-00.3382,+09.909,-00.316,+00.064,+00.657775,-00.121518,-00.255616*6B
"
1712237363.1046996,+020.543,+088.898,-067.365,-00.2083,+00.2181,-00.3274,+09.903,+00.581,+00.208,+00.637387,-00.108576,-00.224735,"$VNYMR,+020.543,+088.898,-067.365,-00.2083,+00.2181,-00.3274,+09.903,+00.581,+00.208,+00.637387,-00.108576,-00.224735*62
"
1712237363.1272252,+022.115,+088.594,-064.898,-00.2050,+00.2181,-00.3380,+09.747,+00.907,+00.199,+00.617561,-00.107634,-00.153827,"$VNYMR,+022.115,+088.594,-064.898,-00.2050,+00.2181,-00.3380,+09.747,+00.907,+00.199,+00.617561,-00.107634,-00.153827*66
"
1712237363.15236,+024.671,+088.393,-061.470,-00.2106,+00.2170,-00.3369,+09.767,+01.004,+00.196,+00.604258,-00.105003,-00.070377,"$VNYMR,+024.671,+088.393,-061.470,-00.2106,+00.2170,-00.3369,+09.767,+01.004,+00.196,+00.604258,-00.105003,-00.070377*67
"
1712237363.1768796,+028.450,+088.282,-056.837,-00.2091,+00.2347,-00.3357,+09.886,+00.583,+00.148,+00.593461,-00.106469,-00.002274,"$VNYMR,+028.450,+088.282,-056.837,-00.2091,+00.2347,-00.3357,+09.886,+00.583,+00.148,+00.593461,-00.106469,-00.002274*61
"
1712237363.2020667,+032.872,+088.217,-051.572,-00.2059,+00.2275,-00.3448,+09.928,-00.008,+00.164,+00.587959,-00.101683,+00.025291,"$VNYMR,+032.872,+088.217,-051.572,-00.2059,+00.2275,-00.3448,+09.928,-00.008,+00.164,+00.587959,-00.101683,+00.025291*6D
"
1712237363.2288313,+036.782,+088.140,-046.823,-00.2082,+00.2252,-00.3449,+09.801,-00.672,+00.111,+00.588057,-00.096118,+00.003296,"$VNYMR,+036.782,+088.140,-046.823,-00.2082,+00.2252,-00.3449,+09.801,-00.672,+00.111,+00.588057,-00.096118,+00.003296*67
"
1712237363.2521892,+038.726,+088.019,-044.027,-00.2116,+00.2229,-00.3357,+09.625,-00.888,+00.153,+00.603233,-00.091566,-00.053525,"$VNYMR,+038.726,+088.019,-044.027,-00.2116,+00.2229,-00.3357,+09.625,-00.888,+00.153,+00.603233,-00.091566,-00.053525*6F
"
1712237363.27716,+038.455,+087.836,-043.413,-00.2082,+00.2229,-00.3475,+09.716,-00.711,+00.165,+00.627476,-00.086502,-00.117137,"$VNYMR,+038.455,+087.836,-043.413,-00.2082,+00.2229,-00.3475,+09.716,-00.711,+00.165,+00.627476,-00.086502,-00.117137*65
"
1712237363.3021708,+036.834,+087.601,-044.113,-00.2116,+00.2217,-00.3463,+09.917,-00.265,+00.223,+00.649555,-00.089596,-00.160169,"$VNYMR,+036.834,+087.601,-044.113,-00.2116,+00.2217,-00.3463,+09.917,-00.265,+00.223,+00.649555,-00.089596,-00.160169*67
"
1712237363.3271215,+035.144,+087.342,-044.860,-00.2111,+00.2466,-00.3479,+09.998,+00.353,+00.260,+00.662788,-00.095119,-00.159076,"$VNYMR,+035.144,+087.342,-044.860,-00.2111,+00.2466,-00.3479,+09.998,+00.353,+00.260,+00.662788,-00.095119,-00.159076*6B
"
1712237363.3543003,+034.281,+087.103,-044.765,-00.2079,+00.2418,-00.3597,+09.844,+00.808,+00.247,+00.668788,-00.101683,-00.117959,"$VNYMR,+034.281,+087.103,-044.765,-00.2079,+00.2418,-00.3597,+09.844,+00.808,+00.247,+00.668788,-00.101683,-00.117959*66
"
1712237363.3799481,+034.614,+086.926,-043.484,-00.2137,+00.2253,-00.3598,+09.686,+00.859,+00.180,+00.653969,-00.097801,-00.048433,"$VNYMR,+034.614,+086.926,-043.484,-00.2137,+00.2253,-00.3598,+09.686,+00.859,+00.180,+00.653969,-00.097801,-00.048433*63
"
1712237363.4023864,+036.124,+086.824,-041.062,-00.2116,+00.2229,-00.3477,+09.599,+00.716,-00.080,+00.626838,-00.076703,+00.022029,"$VNYMR,+036.124,+086.824,-041.062,-00.2116,+00.2229,-00.3477,+09.599,+00.716,-00.080,+00.626838,-00.076703,+00.022029*68
"
1712237363.4295335,+038.317,+086.792,-038.005,-00.2125,+00.2289,-00.3625,+09.649,+00.154,-00.200,+00.588031,-00.067082,+00.066132,"$VNYMR,+038.317,+086.792,-038.005,-00.2125,+00.2289,-00.3625,+09.649,+00.154,-00.200,+00.588031,-00.067082,+00.066132*61
"
1712237363.4545155,+040.574,+086.798,-034.947,-00.2125,+00.2324,-00.3559,+09.553,-00.392,-00.273,+00.546743,-00.034823,+00.071629,"$VNYMR,+040.574,+086.798,-034.947,-00.2125,+00.2324,-00.3559,+09.553,-00.392,-00.273,+00.546743,-00.034823,+00.071629*66
"
