Timestamp,Yaw,Pitch,Roll,Angular Velocity X,Angular Velocity Y,Angular Velocity Z,Linear Acceleration X,Linear Acceleration Y,Linear Acceleration Z,Magnetic Field X,Magnetic Field Y,Magnetic Field Z,Original String
1712236733.0717828,-091.738,+086.368,-113.998,-00.2284,+00.2103,-00.5833,+09.791,+00.551,+00.259,+00.000539,+00.004568,+00.000440,"$VNYMR,-091.738,+086.368,-113.998,-00.2284,+00.2103,-00.5833,+09.791,+00.551,+00.259,+00.000539,+00.004568,+00.000440*6A
"
1712236733.093595,-091.876,+086.365,-114.136,-00.2308,+00.2033,-00.5740,+09.816,+00.570,+00.274,-00.000293,+00.006281,-00.000286,"$VNYMR,-091.876,+086.365,-114.136,-00.2308,+00.2033,-00.5740,+09.816,+00.570,+00.274,-00.000293,+00.006281,-00.000286*60
"
1712236733.1212025,-091.976,+086.361,-114.241,-00.2287,+00.1985,-00.5912,+09.759,+00.560,+00.280,-00.001302,+00.002114,-00.000117,"$VNYMR,-091.976,+086.361,-114.241,-00.2287,+00.1985,-00.5912,+09.759,+00.560,+00.280,-00.001302,+00.002114,-00.000117*68
"
1712236733.1436508,-092.040,+086.360,-114.304,-00.2320,+00.1997,-00.5767,+09.825,+00.576,+00.241,+00.000741,+00.001796,-00.000447,"$VNYMR,-092.040,+086.360,-114.304,-00.2320,+00.1997,-00.5767,+09.825,+00.576,+00.241,+00.000741,+00.001796,-00.000447*60
"
1712236733.1686113,-092.110,+086.359,-114.373,-00.2305,+00.2163,-00.5875,+09.820,+00.569,+00.260,+00.000275,+00.000931,+00.000649,"$VNYMR,-092.110,+086.359,-114.373,-00.2305,+00.2163,-00.5875,+09.820,+00.569,+00.260,+00.000275,+00.000931,+00.000649*67
"
1712236733.1934628,-092.205,+086.357,-114.471,-00.2241,+00.2031,-00.5910,+09.799,+00.559,+00.308,+00.000564,+00.002516,+00.000918,"$VNYMR,-092.205,+086.357,-114.471,-00.2241,+00.2031,-00.5910,+09.799,+00.559,+00.308,+00.000564,+00.002516,+00.000918*68
"
1712236733.218489,-092.237,+086.358,-114.503,-00.2275,+00.2020,-00.5858,+09.814,+00.571,+00.256,+00.000991,+00.001394,+00.001913,"$VNYMR,-092.237,+086.358,-114.503,-00.2275,+00.2020,-00.5858,+09.814,+00.571,+00.256,+00.000991,+00.001394,+00.001913*61
"
1712236733.2438507,-092.318,+086.358,-114.584,-00.2297,+00.2009,-00.5739,+09.772,+00.550,+00.280,-00.000210,+00.004299,+00.002726,"$VNYMR,-092.318,+086.358,-114.584,-00.2297,+00.2009,-00.5739,+09.772,+00.550,+00.280,-00.000210,+00.004299,+00.002726*6C
"
1712236733.2686114,-092.382,+086.359,-114.648,-00.2296,+00.2056,-00.5820,+09.836,+00.562,+00.243,+00.000445,+00.004615,+00.000133,"$VNYMR,-092.382,+086.359,-114.648,-00.2296,+00.2056,-00.5820,+09.836,+00.562,+00.243,+00.000445,+00.004615,+00.000133*60
"
1712236733.2934153,-092.496,+086.359,-114.762,-00.2308,+00.2021,-00.5766,+09.739,+00.567,+00.268,-00.000429,+00.005657,+00.001255,"$VNYMR,-092.496,+086.359,-114.762,-00.2308,+00.2021,-00.5766,+09.739,+00.567,+00.268,-00.000429,+00.005657,+00.001255*65
"
1712236733.3209207,-092.627,+086.355,-114.894,-00.2294,+00.2174,-00.5794,+09.818,+00.535,+00.245,+00.000207,+00.005545,-00.000700,"$VNYMR,-092.627,+086.355,-114.894,-00.2294,+00.2174,-00.5794,+09.818,+00.535,+00.245,+00.000207,+00.005545,-00.000700*65
"
1712236733.3461878,-092.765,+086.351,-115.032,-00.2274,+00.2067,-00.5899,+09.751,+00.545,+00.281,-00.000724,+00.005526,+00.000152,"$VNYMR,-092.765,+086.351,-115.032,-00.2274,+00.2067,-00.5899,+09.751,+00.545,+00.281,-00.000724,+00.005526,+00.000152*61
"
1712236733.3685982,-092.879,+086.349,-115.147,-00.2274,+00.2056,-00.5845,+09.815,+00.557,+00.256,-00.001160,+00.004946,-00.000447,"$VNYMR,-092.879,+086.349,-115.147,-00.2274,+00.2056,-00.5845,+09.815,+00.557,+00.256,-00.001160,+00.004946,-00.000447*67
"
1712236733.3955505,-092.949,+086.346,-115.218,-00.2298,+00.1985,-00.5685,+09.789,+00.560,+00.292,-00.000593,+00.002892,+00.000770,"$VNYMR,-092.949,+086.346,-115.218,-00.2298,+00.1985,-00.5685,+09.789,+00.560,+00.292,-00.000593,+00.002892,+00.000770*67
"
1712236733.4184062,-093.026,+086.345,-115.295,-00.2287,+00.1973,-00.5858,+09.806,+00.544,+00.239,+00.000051,+00.001480,+00.000289,"$VNYMR,-093.026,+086.345,-115.295,-00.2287,+00.1973,-00.5858,+09.806,+00.544,+00.239,+00.000051,+00.001480,+00.000289*64
"
1712236733.4436824,-093.076,+086.344,-115.347,-00.2275,+00.1996,-00.5818,+09.815,+00.580,+00.252,-00.000568,+00.001901,+00.001425,"$VNYMR,-093.076,+086.344,-115.347,-00.2275,+00.1996,-00.5818,+09.815,+00.580,+00.252,-00.000568,+00.001901,+00.001425*67
"
1712236733.469964,-093.115,+086.346,-115.388,-00.2306,+00.2127,-00.5794,+09.805,+00.563,+00.298,-00.000154,+00.000680,+00.003469,"$VNYMR,-093.115,+086.346,-115.388,-00.2306,+00.2127,-00.5794,+09.805,+00.563,+00.298,-00.000154,+00.000680,+00.003469*61
"
1712236733.4936612,-093.180,+086.348,-115.454,-00.2296,+00.2091,-00.5873,+09.768,+00.571,+00.272,-00.001386,+00.002729,+00.002674,"$VNYMR,-093.180,+086.348,-115.454,-00.2296,+00.2091,-00.5873,+09.768,+00.571,+00.272,-00.001386,+00.002729,+00.002674*67
"
1712236733.5200415,-093.238,+086.349,-115.510,-00.2275,+00.1985,-00.5858,+09.808,+00.553,+00.170,+00.000461,+00.001417,+00.001153,"$VNYMR,-093.238,+086.349,-115.510,-00.2275,+00.1985,-00.5858,+09.808,+00.553,+00.170,+00.000461,+00.001417,+00.001153*61
"
1712236733.5459917,-093.273,+086.350,-115.546,-00.2286,+00.2032,-00.5752,+09.784,+00.555,+00.254,+00.000117,+00.002911,+00.000354,"$VNYMR,-093.273,+086.350,-115.546,-00.2286,+00.2032,-00.5752,+09.784,+00.555,+00.254,+00.000117,+00.002911,+00.000354*6A
"
1712236733.5685456,-093.308,+086.350,-115.579,-00.2275,+00.2032,-00.5845,+09.820,+00.571,+00.268,-00.000024,+00.001090,+00.000212,"$VNYMR,-093.308,+086.350,-115.579,-00.2275,+00.2032,-00.5845,+09.820,+00.571,+00.268,-00.000024,+00.001090,+00.000212*61
"
1712236733.5954967,-093.359,+086.348,-115.631,-00.2296,+00.2056,-00.5833,+09.758,+00.565,+00.276,+00.001131,+00.002985,+00.000121,"$VNYMR,-093.359,+086.348,-115.631,-00.2296,+00.2056,-00.5833,+09.758,+00.565,+00.276,+00.001131,+00.002985,+00.000121*68
"
1712236733.6183786,-093.380,+086.347,-115.654,-00.2317,+00.2115,-00.5781,+09.782,+00.573,+00.241,+00.001158,+00.002840,-00.000158,"$VNYMR,-093.380,+086.347,-115.654,-00.2317,+00.2115,-00.5781,+09.782,+00.573,+00.241,+00.001158,+00.002840,-00.000158*63
"
1712236733.6431823,-093.413,+086.345,-115.689,-00.2285,+00.2068,-00.5859,+09.785,+00.579,+00.280,+00.000182,+00.003714,+00.000189,"$VNYMR,-093.413,+086.345,-115.689,-00.2285,+00.2068,-00.5859,+09.785,+00.579,+00.280,+00.000182,+00.003714,+00.000189*64
"
1712236733.6684668,-093.451,+086.345,-115.726,-00.2263,+00.2067,-00.5858,+09.811,+00.569,+00.267,-00.000016,+00.002097,+00.001067,"$VNYMR,-093.451,+086.345,-115.726,-00.2263,+00.2067,-00.5858,+09.811,+00.569,+00.267,-00.000016,+00.002097,+00.001067*6D
"
1712236733.6932414,-093.529,+086.344,-115.807,-00.2262,+00.2079,-00.5738,+09.810,+00.564,+00.301,-00.000589,+00.003254,+00.001291,"$VNYMR,-093.529,+086.344,-115.807,-00.2262,+00.2079,-00.5738,+09.810,+00.564,+00.301,-00.000589,+00.003254,+00.001291*60
"
1712236733.718172,-093.590,+086.344,-115.873,-00.2242,+00.2008,-00.5856,+09.826,+00.554,+00.240,+00.000440,+00.000937,+00.001226,"$VNYMR,-093.590,+086.344,-115.873,-00.2242,+00.2008,-00.5856,+09.826,+00.554,+00.240,+00.000440,+00.000937,+00.001226*63
"
1712236733.7435124,-093.565,+086.346,-115.850,-00.2253,+00.1972,-00.5763,+09.783,+00.577,+00.284,+00.000161,-00.001445,+00.000871,"$VNYMR,-093.565,+086.346,-115.850,-00.2253,+00.1972,-00.5763,+09.783,+00.577,+00.284,+00.000161,-00.001445,+00.000871*6D
"
1712236733.7685406,-093.534,+086.349,-115.818,-00.2260,+00.2185,-00.5873,+09.817,+00.565,+00.258,+00.000038,-00.000202,-00.000284,"$VNYMR,-093.534,+086.349,-115.818,-00.2260,+00.2185,-00.5873,+09.817,+00.565,+00.258,+00.000038,-00.000202,-00.000284*68
"
1712236733.793604,-093.523,+086.351,-115.810,-00.2273,+00.2091,-00.5872,+09.770,+00.569,+00.251,+00.000046,-00.000574,-00.001101,"$VNYMR,-093.523,+086.351,-115.810,-00.2273,+00.2091,-00.5872,+09.770,+00.569,+00.251,+00.000046,-00.000574,-00.001101*63
"
1712236733.821519,-093.499,+086.351,-115.792,-00.2252,+00.2055,-00.5871,+09.809,+00.562,+00.248,+00.000574,-00.000885,-00.001428,"$VNYMR,-093.499,+086.351,-115.792,-00.2252,+00.2055,-00.5871,+09.809,+00.562,+00.248,+00.000574,-00.000885,-00.001428*65
"
1712236733.8433201,-093.467,+086.352,-115.761,-00.2284,+00.2138,-00.5726,+09.779,+00.557,+00.239,+00.000569,-00.001867,-00.000886,"$VNYMR,-093.467,+086.352,-115.761,-00.2284,+00.2138,-00.5726,+09.779,+00.557,+00.239,+00.000569,-00.001867,-00.000886*67
"
1712236733.8719594,-093.464,+086.351,-115.759,-00.2275,+00.2020,-00.5925,+09.807,+00.567,+00.245,+00.000380,+00.000949,-00.000971,"$VNYMR,-093.464,+086.351,-115.759,-00.2275,+00.2020,-00.5925,+09.807,+00.567,+00.245,+00.000380,+00.000949,-00.000971*6B
"
1712236733.8934555,-093.451,+086.351,-115.748,-00.2286,+00.2032,-00.5805,+09.776,+00.567,+00.277,-00.000036,+00.000697,+00.001181,"$VNYMR,-093.451,+086.351,-115.748,-00.2286,+00.2032,-00.5805,+09.776,+00.567,+00.277,-00.000036,+00.000697,+00.001181*6D
"
1712236733.9183884,-093.451,+086.350,-115.750,-00.2284,+00.2091,-00.5819,+09.828,+00.584,+00.250,-00.000055,+00.002236,+00.000697,"$VNYMR,-093.451,+086.350,-115.750,-00.2284,+00.2091,-00.5819,+09.828,+00.584,+00.250,-00.000055,+00.002236,+00.000697*66
"
1712236733.9460702,-093.442,+086.348,-115.743,-00.2262,+00.2079,-00.5858,+09.781,+00.581,+00.311,-00.000640,-00.000437,-00.000178,"$VNYMR,-093.442,+086.348,-115.743,-00.2262,+00.2079,-00.5858,+09.781,+00.581,+00.311,-00.000640,-00.000437,-00.000178*68
"
1712236733.9683156,-093.443,+086.349,-115.744,-00.2251,+00.2079,-00.5831,+09.821,+00.576,+00.254,+00.000318,-00.001619,+00.000296,"$VNYMR,-093.443,+086.349,-115.744,-00.2251,+00.2079,-00.5831,+09.821,+00.576,+00.254,+00.000318,-00.001619,+00.000296*69
"
1712236733.995847,-093.370,+086.351,-115.671,-00.2275,+00.1985,-00.5738,+09.786,+00.561,+00.285,+00.000008,-00.002779,+00.000336,"$VNYMR,-093.370,+086.351,-115.671,-00.2275,+00.1985,-00.5738,+09.786,+00.561,+00.285,+00.000008,-00.002779,+00.000336*6C
"
1712236734.0209796,-093.299,+086.355,-115.600,-00.2263,+00.2044,-00.5858,+09.800,+00.548,+00.269,+00.001327,-00.003454,-00.000383,"$VNYMR,-093.299,+086.355,-115.600,-00.2263,+00.2044,-00.5858,+09.800,+00.548,+00.269,+00.001327,-00.003454,-00.000383*63
"
1712236734.0464425,-093.277,+086.354,-115.580,-00.2275,+00.2020,-00.5765,+09.814,+00.555,+00.298,+00.000369,-00.005229,-00.000493,"$VNYMR,-093.277,+086.354,-115.580,-00.2275,+00.2020,-00.5765,+09.814,+00.555,+00.298,+00.000369,-00.005229,-00.000493*6D
"
1712236734.0687273,-093.227,+086.354,-115.531,-00.2272,+00.2162,-00.5793,+09.773,+00.576,+00.284,+00.001382,-00.004406,-00.002570,"$VNYMR,-093.227,+086.354,-115.531,-00.2272,+00.2162,-00.5793,+09.773,+00.576,+00.284,+00.001382,-00.004406,-00.002570*69
"
1712236734.0955822,-093.109,+086.357,-115.413,-00.2250,+00.2126,-00.5911,+09.789,+00.564,+00.313,+00.000128,-00.003103,-00.000357,"$VNYMR,-093.109,+086.357,-115.413,-00.2250,+00.2126,-00.5911,+09.789,+00.564,+00.313,+00.000128,-00.003103,-00.000357*6C
"
1712236734.1180372,-093.048,+086.359,-115.352,-00.2263,+00.2044,-00.5884,+09.799,+00.551,+00.271,+00.000812,-00.004272,-00.000249,"$VNYMR,-093.048,+086.359,-115.352,-00.2263,+00.2044,-00.5884,+09.799,+00.551,+00.271,+00.000812,-00.004272,-00.000249*62
"
1712236734.1430516,-092.965,+086.362,-115.269,-00.2265,+00.1973,-00.5710,+09.798,+00.557,+00.292,+00.001018,-00.002646,+00.001055,"$VNYMR,-092.965,+086.362,-115.269,-00.2265,+00.1973,-00.5710,+09.798,+00.557,+00.292,+00.001018,-00.002646,+00.001055*6A
"
1712236734.1680636,-092.930,+086.364,-115.235,-00.2252,+00.2043,-00.5884,+09.804,+00.552,+00.260,-00.000476,-00.003485,-00.000543,"$VNYMR,-092.930,+086.364,-115.235,-00.2252,+00.2043,-00.5884,+09.804,+00.552,+00.260,-00.000476,-00.003485,-00.000543*6A
"
1712236734.1930416,-092.876,+086.363,-115.180,-00.2242,+00.1984,-00.5776,+09.791,+00.565,+00.267,-00.001003,-00.001996,-00.001404,"$VNYMR,-092.876,+086.363,-115.180,-00.2242,+00.1984,-00.5776,+09.791,+00.565,+00.267,-00.001003,-00.001996,-00.001404*68
"
1712236734.222963,-092.832,+086.365,-115.133,-00.2284,+00.2103,-00.5819,+09.795,+00.538,+00.239,+00.000806,-00.003196,-00.000710,"$VNYMR,-092.832,+086.365,-115.133,-00.2284,+00.2103,-00.5819,+09.795,+00.538,+00.239,+00.000806,-00.003196,-00.000710*6E
"
1712236734.242919,-092.776,+086.365,-115.078,-00.2252,+00.2067,-00.5871,+09.807,+00.574,+00.254,+00.000700,-00.002970,-00.001220,"$VNYMR,-092.776,+086.365,-115.078,-00.2252,+00.2067,-00.5871,+09.807,+00.574,+00.254,+00.000700,-00.002970,-00.001220*61
"
1712236734.26799,-092.682,+086.365,-114.990,-00.2250,+00.2138,-00.5871,+09.801,+00.556,+00.250,+00.001280,-00.003820,-00.002525,"$VNYMR,-092.682,+086.365,-114.990,-00.2250,+00.2138,-00.5871,+09.801,+00.556,+00.250,+00.001280,-00.003820,-00.002525*66
"
1712236734.2928925,-092.642,+086.364,-114.951,-00.2285,+00.2044,-00.5765,+09.776,+00.570,+00.263,+00.000392,-00.002662,-00.001954,"$VNYMR,-092.642,+086.364,-114.951,-00.2285,+00.2044,-00.5765,+09.776,+00.570,+00.263,+00.000392,-00.002662,-00.001954*66
"
1712236734.3176956,-092.497,+086.366,-114.809,-00.2264,+00.1996,-00.5924,+09.796,+00.592,+00.273,+00.000912,-00.005152,-00.001521,"$VNYMR,-092.497,+086.366,-114.809,-00.2264,+00.1996,-00.5924,+09.796,+00.592,+00.273,+00.000912,-00.005152,-00.001521*6F
"
1712236734.345121,-092.361,+086.368,-114.671,-00.2275,+00.2020,-00.5765,+09.796,+00.569,+00.263,+00.001228,-00.004362,+00.000093,"$VNYMR,-092.361,+086.368,-114.671,-00.2275,+00.2020,-00.5765,+09.796,+00.569,+00.263,+00.001228,-00.004362,+00.000093*6F
"
1712236734.3698435,-092.265,+086.371,-114.574,-00.2262,+00.2114,-00.5792,+09.786,+00.563,+00.270,+00.000165,-00.005486,-00.000657,"$VNYMR,-092.265,+086.371,-114.574,-00.2262,+00.2114,-00.5792,+09.786,+00.563,+00.270,+00.000165,-00.005486,-00.000657*6A
"
1712236734.3953235,-092.145,+086.373,-114.457,-00.2241,+00.2055,-00.5870,+09.779,+00.537,+00.246,-00.001041,-00.004417,-00.000891,"$VNYMR,-092.145,+086.373,-114.457,-00.2241,+00.2055,-00.5870,+09.779,+00.537,+00.246,-00.001041,-00.004417,-00.000891*66
"
1712236734.4177525,-092.032,+086.375,-114.346,-00.2252,+00.2032,-00.5844,+09.803,+00.556,+00.222,-00.000042,-00.003698,-00.000450,"$VNYMR,-092.032,+086.375,-114.346,-00.2252,+00.2032,-00.5844,+09.803,+00.556,+00.222,-00.000042,-00.003698,-00.000450*64
"
1712236734.4457705,-091.965,+086.376,-114.282,-00.2297,+00.1997,-00.5792,+09.758,+00.536,+00.262,-00.000312,-00.002800,-00.001324,"$VNYMR,-091.965,+086.376,-114.282,-00.2297,+00.1997,-00.5792,+09.758,+00.536,+00.262,-00.000312,-00.002800,-00.001324*60
"
1712236734.4681392,-091.936,+086.376,-114.258,-00.2242,+00.1984,-00.5843,+09.785,+00.575,+00.259,-00.001244,-00.002592,-00.002084,"$VNYMR,-091.936,+086.376,-114.258,-00.2242,+00.1984,-00.5843,+09.785,+00.575,+00.259,-00.001244,-00.002592,-00.002084*68
"
1712236734.495853,-091.848,+086.375,-114.172,-00.2263,+00.2044,-00.5778,+09.804,+00.573,+00.252,-00.000343,-00.002694,-00.002099,"$VNYMR,-091.848,+086.375,-114.172,-00.2263,+00.2044,-00.5778,+09.804,+00.573,+00.252,-00.000343,-00.002694,-00.002099*6F
"
1712236734.517945,-091.786,+086.374,-114.109,-00.2272,+00.2162,-00.5806,+09.763,+00.570,+00.267,-00.000220,-00.002036,-00.002222,"$VNYMR,-091.786,+086.374,-114.109,-00.2272,+00.2162,-00.5806,+09.763,+00.570,+00.267,-00.000220,-00.002036,-00.002222*6F
"
1712236734.5428348,-091.745,+086.373,-114.069,-00.2229,+00.2078,-00.5843,+09.821,+00.542,+00.258,-00.000355,-00.002991,-00.000954,"$VNYMR,-091.745,+086.373,-114.069,-00.2229,+00.2078,-00.5843,+09.821,+00.542,+00.258,-00.000355,-00.002991,-00.000954*6E
"
1712236734.5677214,-091.650,+086.374,-113.970,-00.2275,+00.2020,-00.5858,+09.801,+00.572,+00.276,+00.000516,-00.004644,+00.000107,"$VNYMR,-091.650,+086.374,-113.970,-00.2275,+00.2020,-00.5858,+09.801,+00.572,+00.276,+00.000516,-00.004644,+00.000107*67
"
1712236734.5927477,-091.566,+086.375,-113.885,-00.2275,+00.2008,-00.5738,+09.777,+00.571,+00.271,+00.000496,-00.005774,-00.000390,"$VNYMR,-091.566,+086.375,-113.885,-00.2275,+00.2008,-00.5738,+09.777,+00.571,+00.271,+00.000496,-00.005774,-00.000390*62
"
1712236734.6201384,-091.454,+086.378,-113.772,-00.2229,+00.2067,-00.5870,+09.806,+00.560,+00.262,+00.000811,-00.004831,+00.000319,"$VNYMR,-091.454,+086.378,-113.772,-00.2229,+00.2067,-00.5870,+09.806,+00.560,+00.262,+00.000811,-00.004831,+00.000319*6B
"
1712236734.6444666,-091.371,+086.380,-113.689,-00.2264,+00.1996,-00.5750,+09.750,+00.530,+00.285,-00.000738,-00.004879,+00.000706,"$VNYMR,-091.371,+086.380,-113.689,-00.2264,+00.1996,-00.5750,+09.750,+00.530,+00.285,-00.000738,-00.004879,+00.000706*6D
"
1712236734.6677299,-091.318,+086.382,-113.635,-00.2296,+00.2080,-00.5806,+09.800,+00.564,+00.238,-00.000362,-00.004641,-00.000904,"$VNYMR,-091.318,+086.382,-113.635,-00.2296,+00.2080,-00.5806,+09.800,+00.564,+00.238,-00.000362,-00.004641,-00.000904*62
"
1712236734.6961265,-091.233,+086.383,-113.554,-00.2263,+00.2067,-00.5831,+09.775,+00.573,+00.304,+00.000740,-00.003344,-00.001567,"$VNYMR,-091.233,+086.383,-113.554,-00.2263,+00.2067,-00.5831,+09.775,+00.573,+00.304,+00.000740,-00.003344,-00.001567*60
"
1712236734.7176826,-091.228,+086.382,-113.547,-00.2253,+00.1984,-00.5856,+09.776,+00.558,+00.250,-00.000333,-00.003009,-00.000718,"$VNYMR,-091.228,+086.382,-113.547,-00.2253,+00.1984,-00.5856,+09.776,+00.558,+00.250,-00.000333,-00.003009,-00.000718*61
"
1712236734.7447577,-091.185,+086.381,-113.505,-00.2286,+00.2008,-00.5712,+09.801,+00.552,+00.263,-00.001739,-00.001884,-00.001617,"$VNYMR,-091.185,+086.381,-113.505,-00.2286,+00.2008,-00.5712,+09.801,+00.552,+00.263,-00.001739,-00.001884,-00.001617*63
"
1712236734.767868,-091.176,+086.379,-113.497,-00.2253,+00.1984,-00.5883,+09.787,+00.556,+00.271,-00.001031,-00.002814,-00.002346,"$VNYMR,-091.176,+086.379,-113.497,-00.2253,+00.1984,-00.5883,+09.787,+00.556,+00.271,-00.001031,-00.002814,-00.002346*62
"
1712236734.794526,-091.147,+086.377,-113.467,-00.2274,+00.2056,-00.5832,+09.801,+00.554,+00.270,-00.000744,-00.000075,-00.001311,"$VNYMR,-091.147,+086.377,-113.467,-00.2274,+00.2056,-00.5832,+09.801,+00.554,+00.270,-00.000744,-00.000075,-00.001311*61
"
1712236734.81778,-091.132,+086.378,-113.454,-00.2283,+00.2186,-00.5847,+09.779,+00.552,+00.233,+00.000140,-00.001842,-00.000274,"$VNYMR,-091.132,+086.378,-113.454,-00.2283,+00.2186,-00.5847,+09.779,+00.552,+00.233,+00.000140,-00.001842,-00.000274*61
"
1712236734.8428402,-091.115,+086.378,-113.436,-00.2218,+00.2102,-00.5843,+09.809,+00.549,+00.245,-00.000726,-00.000547,-00.000056,"$VNYMR,-091.115,+086.378,-113.436,-00.2218,+00.2102,-00.5843,+09.809,+00.549,+00.245,-00.000726,-00.000547,-00.000056*62
"
1712236734.8677232,-091.112,+086.379,-113.432,-00.2264,+00.1996,-00.5844,+09.797,+00.556,+00.275,+00.000328,-00.002252,-00.000965,"$VNYMR,-091.112,+086.379,-113.432,-00.2264,+00.1996,-00.5844,+09.797,+00.556,+00.275,+00.000328,-00.002252,-00.000965*6B
"
1712236734.892857,-091.116,+086.380,-113.434,-00.2264,+00.1996,-00.5710,+09.773,+00.557,+00.272,+00.001543,-00.002224,-00.000021,"$VNYMR,-091.116,+086.380,-113.434,-00.2264,+00.1996,-00.5710,+09.773,+00.557,+00.272,+00.001543,-00.002224,-00.000021*6F
"
1712236734.9179182,-091.097,+086.379,-113.414,-00.2253,+00.1996,-00.5870,+09.807,+00.562,+00.296,-00.000876,-00.002170,-00.001128,"$VNYMR,-091.097,+086.379,-113.414,-00.2253,+00.1996,-00.5870,+09.807,+00.562,+00.296,-00.000876,-00.002170,-00.001128*69
"
1712236734.944961,-091.062,+086.379,-113.380,-00.2286,+00.2020,-00.5738,+09.807,+00.573,+00.280,-00.000979,-00.002513,-00.000368,"$VNYMR,-091.062,+086.379,-113.380,-00.2286,+00.2020,-00.5738,+09.807,+00.573,+00.280,-00.000979,-00.002513,-00.000368*6A
"
1712236734.9675298,-091.019,+086.379,-113.340,-00.2251,+00.2091,-00.5764,+09.790,+00.561,+00.244,-00.000469,-00.001391,+00.000146,"$VNYMR,-091.019,+086.379,-113.340,-00.2251,+00.2091,-00.5764,+09.790,+00.561,+00.244,-00.000469,-00.001391,+00.000146*62
"
1712236734.9925418,-090.948,+086.381,-113.270,-00.2262,+00.2114,-00.5912,+09.794,+00.577,+00.268,+00.000521,-00.001759,+00.000269,"$VNYMR,-090.948,+086.381,-113.270,-00.2262,+00.2114,-00.5912,+09.794,+00.577,+00.268,+00.000521,-00.001759,+00.000269*60
"
1712236735.0204225,-090.981,+086.381,-113.307,-00.2252,+00.2043,-00.5844,+09.764,+00.556,+00.255,-00.000397,+00.000448,+00.000209,"$VNYMR,-090.981,+086.381,-113.307,-00.2252,+00.2043,-00.5844,+09.764,+00.556,+00.255,-00.000397,+00.000448,+00.000209*6B
"
1712236735.0448658,-090.985,+086.380,-113.310,-00.2265,+00.1973,-00.5723,+09.794,+00.555,+00.242,-00.000238,+00.000904,-00.000375,"$VNYMR,-090.985,+086.380,-113.310,-00.2265,+00.1973,-00.5723,+09.794,+00.555,+00.242,-00.000238,+00.000904,-00.000375*6C
"
1712236735.0674875,-091.035,+086.380,-113.360,-00.2252,+00.2043,-00.5830,+09.817,+00.561,+00.261,-00.000649,+00.003015,+00.000702,"$VNYMR,-091.035,+086.380,-113.360,-00.2252,+00.2043,-00.5830,+09.817,+00.561,+00.261,-00.000649,+00.003015,+00.000702*60
"
1712236735.0924418,-091.099,+086.378,-113.427,-00.2242,+00.1984,-00.5749,+09.783,+00.569,+00.237,-00.000522,+00.002920,+00.000587,"$VNYMR,-091.099,+086.378,-113.427,-00.2242,+00.1984,-00.5749,+09.783,+00.569,+00.237,-00.000522,+00.002920,+00.000587*62
"
1712236735.1193035,-091.144,+086.378,-113.473,-00.2284,+00.2127,-00.5793,+09.799,+00.549,+00.287,-00.000848,+00.003064,+00.000263,"$VNYMR,-091.144,+086.378,-113.473,-00.2284,+00.2127,-00.5793,+09.799,+00.549,+00.287,-00.000848,+00.003064,+00.000263*6B
"
1712236735.1443248,-091.189,+086.377,-113.518,-00.2251,+00.2079,-00.5844,+09.793,+00.565,+00.273,-00.000890,+00.001759,-00.000655,"$VNYMR,-091.189,+086.377,-113.518,-00.2251,+00.2079,-00.5844,+09.793,+00.565,+00.273,-00.000890,+00.001759,-00.000655*68
"
1712236735.1674352,-091.230,+086.375,-113.559,-00.2241,+00.2019,-00.5843,+09.826,+00.568,+00.268,+00.000616,+00.000119,+00.000025,"$VNYMR,-091.230,+086.375,-113.559,-00.2241,+00.2019,-00.5843,+09.826,+00.568,+00.268,+00.000616,+00.000119,+00.000025*6A
"
1712236735.1946375,-091.240,+086.375,-113.569,-00.2264,+00.1996,-00.5750,+09.788,+00.581,+00.259,-00.000332,+00.001064,+00.000133,"$VNYMR,-091.240,+086.375,-113.569,-00.2264,+00.1996,-00.5750,+09.788,+00.581,+00.259,-00.000332,+00.001064,+00.000133*6E
"
1712236735.217489,-091.287,+086.375,-113.612,-00.2231,+00.2007,-00.5882,+09.786,+00.551,+00.273,+00.001853,+00.000704,+00.000700,"$VNYMR,-091.287,+086.375,-113.612,-00.2231,+00.2007,-00.5882,+09.786,+00.551,+00.273,+00.001853,+00.000704,+00.000700*6E
"
1712236735.2424734,-091.306,+086.376,-113.632,-00.2265,+00.1949,-00.5750,+09.794,+00.580,+00.272,-00.000031,+00.001267,+00.001183,"$VNYMR,-091.306,+086.376,-113.632,-00.2265,+00.1949,-00.5750,+09.794,+00.580,+00.272,-00.000031,+00.001267,+00.001183*6E
"
1712236735.2673857,-091.326,+086.379,-113.648,-00.2262,+00.2126,-00.5779,+09.794,+00.550,+00.239,+00.000588,+00.001682,-00.000491,"$VNYMR,-091.326,+086.379,-113.648,-00.2262,+00.2126,-00.5779,+09.794,+00.550,+00.239,+00.000588,+00.001682,-00.000491*6D
"
1712236735.2925258,-091.414,+086.379,-113.736,-00.2230,+00.2043,-00.5883,+09.788,+00.573,+00.282,+00.000604,+00.005024,+00.000720,"$VNYMR,-091.414,+086.379,-113.736,-00.2230,+00.2043,-00.5883,+09.788,+00.573,+00.282,+00.000604,+00.005024,+00.000720*66
"
1712236735.3176813,-091.467,+086.379,-113.787,-00.2252,+00.2067,-00.5884,+09.784,+00.569,+00.267,-00.000198,+00.002874,+00.000775,"$VNYMR,-091.467,+086.379,-113.787,-00.2252,+00.2067,-00.5884,+09.784,+00.569,+00.267,-00.000198,+00.002874,+00.000775*6F
"
1712236735.3427253,-091.589,+086.377,-113.909,-00.2242,+00.1996,-00.5789,+09.783,+00.547,+00.272,-00.000667,+00.004649,-00.000179,"$VNYMR,-091.589,+086.377,-113.909,-00.2242,+00.1996,-00.5789,+09.783,+00.547,+00.272,-00.000667,+00.004649,-00.000179*6D
"
1712236735.3701851,-091.695,+086.375,-114.015,-00.2253,+00.2020,-00.5870,+09.824,+00.560,+00.268,+00.000365,+00.004859,+00.000463,"$VNYMR,-091.695,+086.375,-114.015,-00.2253,+00.2020,-00.5870,+09.824,+00.560,+00.268,+00.000365,+00.004859,+00.000463*66
"
1712236735.3924172,-091.854,+086.371,-114.170,-00.2275,+00.2008,-00.5791,+09.758,+00.569,+00.323,+00.000708,+00.003945,+00.000630,"$VNYMR,-091.854,+086.371,-114.170,-00.2275,+00.2008,-00.5791,+09.758,+00.569,+00.323,+00.000708,+00.003945,+00.000630*6E
"
1712236735.4177496,-091.914,+086.370,-114.228,-00.2273,+00.2115,-00.5806,+09.793,+00.589,+00.283,-00.000744,+00.004320,+00.000529,"$VNYMR,-091.914,+086.370,-114.228,-00.2273,+00.2115,-00.5806,+09.793,+00.589,+00.283,-00.000744,+00.004320,+00.000529*67
"
1712236735.4450758,-092.023,+086.367,-114.340,-00.2240,+00.2079,-00.5830,+09.775,+00.577,+00.275,-00.000395,+00.002238,+00.000136,"$VNYMR,-092.023,+086.367,-114.340,-00.2240,+00.2079,-00.5830,+09.775,+00.577,+00.275,-00.000395,+00.002238,+00.000136*62
"
1712236735.4673772,-092.108,+086.366,-114.425,-00.2262,+00.2126,-00.5832,+09.800,+00.581,+00.241,+00.000857,+00.003145,+00.001054,"$VNYMR,-092.108,+086.366,-114.425,-00.2262,+00.2126,-00.5832,+09.800,+00.581,+00.241,+00.000857,+00.003145,+00.001054*6A
"
1712236735.4921684,-092.185,+086.366,-114.504,-00.2287,+00.1985,-00.5738,+09.768,+00.572,+00.275,+00.000478,+00.000915,+00.001889,"$VNYMR,-092.185,+086.366,-114.504,-00.2287,+00.1985,-00.5738,+09.768,+00.572,+00.275,+00.000478,+00.000915,+00.001889*6C
"
1712236735.5171962,-092.244,+086.368,-114.562,-00.2231,+00.1996,-00.5829,+09.827,+00.533,+00.261,+00.000173,+00.003207,+00.000549,"$VNYMR,-092.244,+086.368,-114.562,-00.2231,+00.1996,-00.5829,+09.827,+00.533,+00.261,+00.000173,+00.003207,+00.000549*6D
"
1712236735.5422378,-092.297,+086.368,-114.616,-00.2275,+00.2008,-00.5764,+09.791,+00.571,+00.271,+00.000680,+00.003887,+00.001815,"$VNYMR,-092.297,+086.368,-114.616,-00.2275,+00.2008,-00.5764,+09.791,+00.571,+00.271,+00.000680,+00.003887,+00.001815*61
"
1712236735.5674076,-092.389,+086.366,-114.707,-00.2273,+00.2091,-00.5792,+09.786,+00.550,+00.277,-00.000269,+00.003982,+00.000800,"$VNYMR,-092.389,+086.366,-114.707,-00.2273,+00.2091,-00.5792,+09.786,+00.550,+00.277,-00.000269,+00.003982,+00.000800*68
"
1712236735.5924551,-092.500,+086.365,-114.817,-00.2251,+00.2091,-00.5831,+09.755,+00.565,+00.278,+00.001932,+00.003685,-00.000526,"$VNYMR,-092.500,+086.365,-114.817,-00.2251,+00.2091,-00.5831,+09.755,+00.565,+00.278,+00.001932,+00.003685,-00.000526*66
"
1712236735.6171665,-092.559,+086.363,-114.875,-00.2252,+00.2055,-00.5857,+09.772,+00.566,+00.239,+00.001318,+00.005042,+00.000101,"$VNYMR,-092.559,+086.363,-114.875,-00.2252,+00.2055,-00.5857,+09.772,+00.566,+00.239,+00.001318,+00.005042,+00.000101*6E
"
1712236735.6445353,-092.636,+086.363,-114.953,-00.2253,+00.1984,-00.5790,+09.802,+00.562,+00.238,+00.000121,+00.005232,-00.000166,"$VNYMR,-092.636,+086.363,-114.953,-00.2253,+00.1984,-00.5790,+09.802,+00.562,+00.238,+00.000121,+00.005232,-00.000166*64
"
1712236735.6674352,-092.770,+086.359,-115.086,-00.2252,+00.2032,-00.5870,+09.809,+00.551,+00.259,-00.000273,+00.006539,+00.001089,"$VNYMR,-092.770,+086.359,-115.086,-00.2252,+00.2032,-00.5870,+09.809,+00.551,+00.259,-00.000273,+00.006539,+00.001089*6F
"
1712236735.6946573,-092.873,+086.356,-115.188,-00.2264,+00.2008,-00.5764,+09.799,+00.589,+00.294,-00.000256,+00.005555,+00.000767,"$VNYMR,-092.873,+086.356,-115.188,-00.2264,+00.2008,-00.5764,+09.799,+00.589,+00.294,-00.000256,+00.005555,+00.000767*6F
"
1712236735.7209597,-092.982,+086.354,-115.295,-00.2260,+00.2185,-00.5766,+09.797,+00.577,+00.264,+00.000639,+00.004580,+00.001897,"$VNYMR,-092.982,+086.354,-115.295,-00.2260,+00.2185,-00.5766,+09.797,+00.577,+00.264,+00.000639,+00.004580,+00.001897*6C
"
1712236735.7432258,-093.027,+086.353,-115.341,-00.2240,+00.2079,-00.5884,+09.805,+00.577,+00.240,+00.000614,+00.003542,+00.001269,"$VNYMR,-093.027,+086.353,-115.341,-00.2240,+00.2079,-00.5884,+09.805,+00.577,+00.240,+00.000614,+00.003542,+00.001269*68
"
1712236735.768094,-093.115,+086.352,-115.429,-00.2263,+00.2032,-00.5898,+09.820,+00.553,+00.261,+00.000577,+00.003124,+00.001065,"$VNYMR,-093.115,+086.352,-115.429,-00.2263,+00.2032,-00.5898,+09.820,+00.553,+00.261,+00.000577,+00.003124,+00.001065*6D
"
1712236735.7923548,-093.104,+086.353,-115.416,-00.2264,+00.1996,-00.5737,+09.801,+00.557,+00.254,-00.000697,+00.001106,+00.000707,"$VNYMR,-093.104,+086.353,-115.416,-00.2264,+00.1996,-00.5737,+09.801,+00.557,+00.254,-00.000697,+00.001106,+00.000707*63
"
1712236735.8181312,-093.110,+086.354,-115.420,-00.2253,+00.1996,-00.5870,+09.800,+00.566,+00.287,+00.001402,+00.000424,+00.000461,"$VNYMR,-093.110,+086.354,-115.420,-00.2253,+00.1996,-00.5870,+09.800,+00.566,+00.287,+00.001402,+00.000424,+00.000461*6F
"
1712236735.8444195,-093.125,+086.354,-115.439,-00.2253,+00.1996,-00.5763,+09.802,+00.574,+00.265,-00.000024,+00.001676,+00.000224,"$VNYMR,-093.125,+086.354,-115.439,-00.2253,+00.1996,-00.5763,+09.802,+00.574,+00.265,-00.000024,+00.001676,+00.000224*65
"
1712236735.8680973,-093.146,+086.353,-115.458,-00.2273,+00.2115,-00.5792,+09.793,+00.572,+00.272,+00.000440,+00.002532,+00.000136,"$VNYMR,-093.146,+086.353,-115.458,-00.2273,+00.2115,-00.5792,+09.793,+00.572,+00.272,+00.000440,+00.002532,+00.000136*6B
"
1712236735.8931668,-093.143,+086.352,-115.459,-00.2218,+00.2078,-00.5829,+09.783,+00.557,+00.259,+00.000395,+00.003410,+00.001102,"$VNYMR,-093.143,+086.352,-115.459,-00.2218,+00.2078,-00.5829,+09.783,+00.557,+00.259,+00.000395,+00.003410,+00.001102*60
"
1712236735.9216113,-093.213,+086.351,-115.529,-00.2241,+00.2043,-00.5843,+09.762,+00.591,+00.270,-00.000258,+00.002490,+00.000342,"$VNYMR,-093.213,+086.351,-115.529,-00.2241,+00.2043,-00.5843,+09.762,+00.591,+00.270,-00.000258,+00.002490,+00.000342*6D
"
1712236735.9451134,-093.310,+086.349,-115.629,-00.2264,+00.1996,-00.5777,+09.787,+00.592,+00.256,-00.001074,+00.004534,+00.000381,"$VNYMR,-093.310,+086.349,-115.629,-00.2264,+00.1996,-00.5777,+09.787,+00.592,+00.256,-00.001074,+00.004534,+00.000381*6F
"
1712236735.9707608,-093.404,+086.346,-115.721,-00.2253,+00.1996,-00.5830,+09.810,+00.568,+00.317,+00.000462,+00.002826,+00.000163,"$VNYMR,-093.404,+086.346,-115.721,-00.2253,+00.1996,-00.5830,+09.810,+00.568,+00.317,+00.000462,+00.002826,+00.000163*61
"
1712236735.9921544,-093.449,+086.345,-115.766,-00.2241,+00.2019,-00.5763,+09.776,+00.574,+00.256,-00.000002,+00.001571,+00.000186,"$VNYMR,-093.449,+086.345,-115.766,-00.2241,+00.2019,-00.5763,+09.776,+00.574,+00.256,-00.000002,+00.001571,+00.000186*6A
"
1712236736.0180979,-093.480,+086.345,-115.796,-00.2273,+00.2103,-00.5792,+09.803,+00.566,+00.276,-00.000069,-00.000364,+00.000251,"$VNYMR,-093.480,+086.345,-115.796,-00.2273,+00.2103,-00.5792,+09.803,+00.566,+00.276,-00.000069,-00.000364,+00.000251*68
"
1712236736.0447052,-093.506,+086.344,-115.820,-00.2229,+00.2067,-00.5870,+09.789,+00.565,+00.269,-00.000051,+00.000599,+00.000146,"$VNYMR,-093.506,+086.344,-115.820,-00.2229,+00.2067,-00.5870,+09.789,+00.565,+00.269,-00.000051,+00.000599,+00.000146*67
"
1712236736.0681772,-093.531,+086.343,-115.843,-00.2253,+00.1996,-00.5883,+09.782,+00.557,+00.257,+00.000973,-00.001278,+00.001702,"$VNYMR,-093.531,+086.343,-115.843,-00.2253,+00.1996,-00.5883,+09.782,+00.557,+00.257,+00.000973,-00.001278,+00.001702*64
"
1712236736.0921156,-093.486,+086.344,-115.797,-00.2263,+00.2032,-00.5777,+09.770,+00.576,+00.273,+00.000474,-00.002196,-00.000299,"$VNYMR,-093.486,+086.344,-115.797,-00.2263,+00.2032,-00.5777,+09.770,+00.576,+00.273,+00.000474,-00.002196,-00.000299*69
"
1712236736.1183684,-093.489,+086.344,-115.797,-00.2242,+00.2008,-00.5896,+09.794,+00.557,+00.290,+00.000939,-00.001653,-00.000378,"$VNYMR,-093.489,+086.344,-115.797,-00.2242,+00.2008,-00.5896,+09.794,+00.557,+00.290,+00.000939,-00.001653,-00.000378*6F
"
1712236736.1423287,-093.510,+086.344,-115.818,-00.2286,+00.1997,-00.5778,+09.799,+00.585,+00.231,+00.000541,-00.001323,+00.001379,"$VNYMR,-093.510,+086.344,-115.818,-00.2286,+00.1997,-00.5778,+09.799,+00.585,+00.231,+00.000541,-00.001323,+00.001379*63
"
1712236736.1701293,-093.503,+086.344,-115.810,-00.2262,+00.2126,-00.5845,+09.781,+00.567,+00.267,+00.000393,-00.000881,+00.000713,"$VNYMR,-093.503,+086.344,-115.810,-00.2262,+00.2126,-00.5845,+09.781,+00.567,+00.267,+00.000393,-00.000881,+00.000713*67
"
1712236736.1950552,-093.501,+086.345,-115.809,-00.2240,+00.2090,-00.5857,+09.792,+00.549,+00.262,+00.000072,-00.000070,+00.000623,"$VNYMR,-093.501,+086.345,-115.809,-00.2240,+00.2090,-00.5857,+09.792,+00.549,+00.262,+00.000072,-00.000070,+00.000623*60
"
1712236736.2202702,-093.513,+086.345,-115.824,-00.2262,+00.2114,-00.5858,+09.786,+00.556,+00.262,+00.000328,+00.001612,+00.000337,"$VNYMR,-093.513,+086.345,-115.824,-00.2262,+00.2114,-00.5858,+09.786,+00.556,+00.262,+00.000328,+00.001612,+00.000337*6C
"
1712236736.2418003,-093.493,+086.344,-115.804,-00.2275,+00.1996,-00.5778,+09.798,+00.575,+00.221,-00.000263,-00.000213,-00.000507,"$VNYMR,-093.493,+086.344,-115.804,-00.2275,+00.1996,-00.5778,+09.798,+00.575,+00.221,-00.000263,-00.000213,-00.000507*6C
"
1712236736.2682536,-093.503,+086.343,-115.815,-00.2275,+00.2020,-00.5871,+09.813,+00.574,+00.253,-00.000339,+00.001033,-00.001849,"$VNYMR,-093.503,+086.343,-115.815,-00.2275,+00.2020,-00.5871,+09.813,+00.574,+00.253,-00.000339,+00.001033,-00.001849*65
"
1712236736.291844,-093.487,+086.342,-115.799,-00.2263,+00.2055,-00.5751,+09.782,+00.562,+00.272,+00.000671,-00.000394,+00.000091,"$VNYMR,-093.487,+086.342,-115.799,-00.2263,+00.2055,-00.5751,+09.782,+00.562,+00.272,+00.000671,-00.000394,+00.000091*65
"
1712236736.31981,-093.451,+086.343,-115.767,-00.2272,+00.2138,-00.5793,+09.815,+00.570,+00.260,-00.000127,-00.003570,-00.000940,"$VNYMR,-093.451,+086.343,-115.767,-00.2272,+00.2138,-00.5793,+09.815,+00.570,+00.260,-00.000127,-00.003570,-00.000940*65
"
1712236736.3429382,-093.384,+086.344,-115.701,-00.2229,+00.2067,-00.5870,+09.787,+00.585,+00.292,+00.000175,-00.001760,+00.000778,"$VNYMR,-093.384,+086.344,-115.701,-00.2229,+00.2067,-00.5870,+09.787,+00.585,+00.292,+00.000175,-00.001760,+00.000778*6A
"
1712236736.3707328,-093.281,+086.346,-115.604,-00.2241,+00.2031,-00.5883,+09.779,+00.587,+00.283,-00.000566,-00.005218,+00.000866,"$VNYMR,-093.281,+086.346,-115.604,-00.2241,+00.2031,-00.5883,+09.779,+00.587,+00.283,-00.000566,-00.005218,+00.000866*64
"
1712236736.3964572,-093.154,+086.348,-115.476,-00.2273,+00.2091,-00.5739,+09.763,+00.550,+00.265,-00.000276,-00.003600,-00.000461,"$VNYMR,-093.154,+086.348,-115.476,-00.2273,+00.2091,-00.5739,+09.763,+00.550,+00.265,-00.000276,-00.003600,-00.000461*6A
"
1712236736.4203088,-093.049,+086.351,-115.373,-00.2231,+00.1972,-00.5855,+09.810,+00.564,+00.284,-00.000381,-00.005430,+00.000187,"$VNYMR,-093.049,+086.351,-115.373,-00.2231,+00.1972,-00.5855,+09.810,+00.564,+00.284,-00.000381,-00.005430,+00.000187*6F
"
1712236736.443081,-092.965,+086.353,-115.290,-00.2253,+00.2020,-00.5777,+09.777,+00.569,+00.230,-00.000906,-00.002469,-00.000553,"$VNYMR,-092.965,+086.353,-115.290,-00.2253,+00.2020,-00.5777,+09.777,+00.569,+00.230,-00.000906,-00.002469,-00.000553*68
"
1712236736.4697855,-092.924,+086.354,-115.249,-00.2285,+00.2079,-00.5806,+09.781,+00.582,+00.256,-00.000100,-00.003833,-00.000800,"$VNYMR,-092.924,+086.354,-115.249,-00.2285,+00.2079,-00.5806,+09.781,+00.582,+00.256,-00.000100,-00.003833,-00.000800*6B
"
1712236736.492584,-092.860,+086.354,-115.187,-00.2240,+00.2090,-00.5910,+09.794,+00.580,+00.209,+00.000288,-00.002123,-00.001606,"$VNYMR,-092.860,+086.354,-115.187,-00.2240,+00.2090,-00.5910,+09.794,+00.580,+00.209,+00.000288,-00.002123,-00.001606*6A
"
1712236736.5178812,-092.757,+086.354,-115.086,-00.2242,+00.2008,-00.5856,+09.801,+00.581,+00.256,-00.002001,-00.002323,-00.001137,"$VNYMR,-092.757,+086.354,-115.086,-00.2242,+00.2008,-00.5856,+09.801,+00.581,+00.256,-00.002001,-00.002323,-00.001137*69
"
1712236736.5427327,-092.693,+086.354,-115.023,-00.2265,+00.1973,-00.5737,+09.772,+00.577,+00.294,-00.000720,-00.001746,-00.002019,"$VNYMR,-092.693,+086.354,-115.023,-00.2265,+00.1973,-00.5737,+09.772,+00.577,+00.294,-00.000720,-00.001746,-00.002019*64
"
1712236736.567737,-092.646,+086.354,-114.977,-00.2242,+00.2008,-00.5843,+09.791,+00.570,+00.302,-00.000052,-00.003515,-00.001685,"$VNYMR,-092.646,+086.354,-114.977,-00.2242,+00.2008,-00.5843,+09.791,+00.570,+00.302,-00.000052,-00.003515,-00.001685*6A
"
1712236736.5926285,-092.575,+086.353,-114.905,-00.2264,+00.1996,-00.5790,+09.799,+00.574,+00.269,+00.000626,-00.003088,-00.001193,"$VNYMR,-092.575,+086.353,-114.905,-00.2264,+00.1996,-00.5790,+09.799,+00.574,+00.269,+00.000626,-00.003088,-00.001193*61
"
1712236736.620446,-092.500,+086.353,-114.828,-00.2294,+00.2174,-00.5821,+09.797,+00.566,+00.254,-00.001319,-00.005215,-00.001355,"$VNYMR,-092.500,+086.353,-114.828,-00.2294,+00.2174,-00.5821,+09.797,+00.566,+00.254,-00.001319,-00.005215,-00.001355*65
"
1712236736.6444364,-092.427,+086.355,-114.754,-00.2228,+00.2149,-00.5857,+09.782,+00.569,+00.245,-00.000525,-00.005150,+00.000309,"$VNYMR,-092.427,+086.355,-114.754,-00.2228,+00.2149,-00.5857,+09.782,+00.569,+00.245,-00.000525,-00.005150,+00.000309*64
"
1712236736.6706738,-092.279,+086.359,-114.608,-00.2241,+00.2031,-00.5856,+09.805,+00.582,+00.223,+00.000185,-00.005314,-00.001443,"$VNYMR,-092.279,+086.359,-114.608,-00.2241,+00.2031,-00.5856,+09.805,+00.582,+00.223,+00.000185,-00.005314,-00.001443*6C
"
1712236736.6953015,-092.162,+086.361,-114.492,-00.2285,+00.2068,-00.5792,+09.777,+00.554,+00.242,-00.000671,-00.006787,-00.000215,"$VNYMR,-092.162,+086.361,-114.492,-00.2285,+00.2068,-00.5792,+09.777,+00.554,+00.242,-00.000671,-00.006787,-00.000215*69
"
1712236736.717864,-092.021,+086.364,-114.349,-00.2262,+00.2103,-00.5858,+09.815,+00.564,+00.244,+00.000298,-00.003796,-00.001087,"$VNYMR,-092.021,+086.364,-114.349,-00.2262,+00.2103,-00.5858,+09.815,+00.564,+00.244,+00.000298,-00.003796,-00.001087*61
"
1712236736.742628,-091.893,+086.366,-114.224,-00.2263,+00.2044,-00.5831,+09.773,+00.562,+00.246,-00.000901,-00.004345,-00.001499,"$VNYMR,-091.893,+086.366,-114.224,-00.2263,+00.2044,-00.5831,+09.773,+00.562,+00.246,-00.000901,-00.004345,-00.001499*67
"
1712236736.7679727,-091.754,+086.369,-114.086,-00.2273,+00.2115,-00.5779,+09.780,+00.583,+00.274,+00.000623,-00.004587,-00.001409,"$VNYMR,-091.754,+086.369,-114.086,-00.2273,+00.2115,-00.5779,+09.780,+00.583,+00.274,+00.000623,-00.004587,-00.001409*6B
"
1712236736.7925904,-091.751,+086.368,-114.087,-00.2230,+00.2055,-00.5883,+09.763,+00.554,+00.254,-00.000614,-00.003236,-00.000835,"$VNYMR,-091.751,+086.368,-114.087,-00.2230,+00.2055,-00.5883,+09.763,+00.554,+00.254,-00.000614,-00.003236,-00.000835*69
"
1712236736.8174448,-091.725,+086.367,-114.064,-00.2262,+00.2091,-00.5898,+09.824,+00.550,+00.246,-00.001050,-00.003955,-00.000816,"$VNYMR,-091.725,+086.367,-114.064,-00.2262,+00.2091,-00.5898,+09.824,+00.550,+00.246,-00.001050,-00.003955,-00.000816*6E
"
1712236736.8427794,-091.651,+086.370,-113.989,-00.2263,+00.2043,-00.5698,+09.776,+00.565,+00.292,-00.000053,-00.003652,-00.000874,"$VNYMR,-091.651,+086.370,-113.989,-00.2263,+00.2043,-00.5698,+09.776,+00.565,+00.292,-00.000053,-00.003652,-00.000874*6E
"
1712236736.8677304,-091.542,+086.372,-113.881,-00.2241,+00.2019,-00.5830,+09.809,+00.573,+00.237,-00.000017,-00.002162,-00.000947,"$VNYMR,-091.542,+086.372,-113.881,-00.2241,+00.2019,-00.5830,+09.809,+00.573,+00.237,-00.000017,-00.002162,-00.000947*6C
"
1712236736.8951113,-091.471,+086.371,-113.811,-00.2242,+00.1996,-00.5763,+09.785,+00.565,+00.271,+00.000917,-00.003382,-00.001166,"$VNYMR,-091.471,+086.371,-113.811,-00.2242,+00.1996,-00.5763,+09.785,+00.565,+00.271,+00.000917,-00.003382,-00.001166*66
"
1712236736.9204707,-091.428,+086.372,-113.769,-00.2261,+00.2150,-00.5792,+09.800,+00.592,+00.285,-00.000363,-00.002238,-00.000558,"$VNYMR,-091.428,+086.372,-113.769,-00.2261,+00.2150,-00.5792,+09.800,+00.592,+00.285,-00.000363,-00.002238,-00.000558*60
"
1712236736.942734,-091.338,+086.375,-113.679,-00.2228,+00.2161,-00.5831,+09.782,+00.560,+00.264,-00.000492,-00.003951,-00.000509,"$VNYMR,-091.338,+086.375,-113.679,-00.2228,+00.2161,-00.5831,+09.782,+00.560,+00.264,-00.000492,-00.003951,-00.000509*67
"
1712236736.9674468,-091.234,+086.376,-113.576,-00.2241,+00.2019,-00.5843,+09.793,+00.563,+00.267,-00.001161,-00.004041,-00.000513,"$VNYMR,-091.234,+086.376,-113.576,-00.2241,+00.2019,-00.5843,+09.793,+00.563,+00.267,-00.001161,-00.004041,-00.000513*6D
"
1712236736.9923499,-091.097,+086.379,-113.436,-00.2296,+00.2068,-00.5820,+09.778,+00.572,+00.258,+00.000373,-00.003140,-00.001723,"$VNYMR,-091.097,+086.379,-113.436,-00.2296,+00.2068,-00.5820,+09.778,+00.572,+00.258,+00.000373,-00.003140,-00.001723*6D
"
1712236737.017789,-091.014,+086.380,-113.349,-00.2242,+00.1984,-00.5869,+09.795,+00.570,+00.229,+00.000792,-00.003363,-00.000738,"$VNYMR,-091.014,+086.380,-113.349,-00.2242,+00.1984,-00.5869,+09.795,+00.570,+00.229,+00.000792,-00.003363,-00.000738*67
"
1712236737.042639,-090.974,+086.380,-113.306,-00.2264,+00.1996,-00.5750,+09.775,+00.569,+00.230,-00.000027,-00.000629,+00.000428,"$VNYMR,-090.974,+086.380,-113.306,-00.2264,+00.1996,-00.5750,+09.775,+00.569,+00.230,-00.000027,-00.000629,+00.000428*6D
"
1712236737.06743,-090.943,+086.380,-113.274,-00.2283,+00.2150,-00.5793,+09.793,+00.556,+00.241,-00.000431,-00.001178,-00.001382,"$VNYMR,-090.943,+086.380,-113.274,-00.2283,+00.2150,-00.5793,+09.793,+00.556,+00.241,-00.000431,-00.001178,-00.001382*69
"
1712236737.0924537,-090.944,+086.380,-113.278,-00.2251,+00.2091,-00.5858,+09.773,+00.564,+00.258,+00.000384,-00.000571,-00.000467,"$VNYMR,-090.944,+086.380,-113.278,-00.2251,+00.2091,-00.5858,+09.773,+00.564,+00.258,+00.000384,-00.000571,-00.000467*60
"
1712236737.1174035,-090.950,+086.379,-113.284,-00.2231,+00.2007,-00.5842,+09.787,+00.569,+00.238,+00.000622,-00.000996,-00.001287,"$VNYMR,-090.950,+086.379,-113.284,-00.2231,+00.2007,-00.5842,+09.787,+00.569,+00.238,+00.000622,-00.000996,-00.001287*67
"
1712236737.1425698,-090.950,+086.379,-113.284,-00.2276,+00.1961,-00.5724,+09.794,+00.580,+00.252,+00.000515,+00.000285,-00.001264,"$VNYMR,-090.950,+086.379,-113.284,-00.2276,+00.1961,-00.5724,+09.794,+00.580,+00.252,+00.000515,+00.000285,-00.001264*6D
"
1712236737.167768,-090.927,+086.376,-113.261,-00.2254,+00.1949,-00.5856,+09.806,+00.578,+00.258,+00.000795,+00.000736,-00.000093,"$VNYMR,-090.927,+086.376,-113.261,-00.2254,+00.1949,-00.5856,+09.806,+00.578,+00.258,+00.000795,+00.000736,-00.000093*6C
"
1712236737.1924582,-090.896,+086.377,-113.229,-00.2286,+00.2032,-00.5752,+09.764,+00.556,+00.260,+00.001095,-00.001284,-00.000382,"$VNYMR,-090.896,+086.377,-113.229,-00.2286,+00.2032,-00.5752,+09.764,+00.556,+00.260,+00.001095,-00.001284,-00.000382*6A
"
1712236737.219217,-090.876,+086.376,-113.211,-00.2260,+00.2209,-00.5806,+09.759,+00.591,+00.262,+00.000719,-00.001438,-00.000624,"$VNYMR,-090.876,+086.376,-113.211,-00.2260,+00.2209,-00.5806,+09.759,+00.591,+00.262,+00.000719,-00.001438,-00.000624*6F
"
1712236737.2425234,-090.853,+086.375,-113.188,-00.2262,+00.2103,-00.5832,+09.760,+00.593,+00.234,+00.000361,-00.004395,-00.000474,"$VNYMR,-090.853,+086.375,-113.188,-00.2262,+00.2103,-00.5832,+09.760,+00.593,+00.234,+00.000361,-00.004395,-00.000474*66
"
1712236737.2681205,-090.821,+086.377,-113.154,-00.2250,+00.2138,-00.5818,+09.800,+00.564,+00.258,+00.001103,-00.000902,-00.000242,"$VNYMR,-090.821,+086.377,-113.154,-00.2250,+00.2138,-00.5818,+09.800,+00.564,+00.258,+00.001103,-00.000902,-00.000242*6E
"
1712236737.2926352,-090.789,+086.379,-113.124,-00.2264,+00.1996,-00.5697,+09.781,+00.567,+00.238,+00.000261,-00.000265,+00.000226,"$VNYMR,-090.789,+086.379,-113.124,-00.2264,+00.1996,-00.5697,+09.781,+00.567,+00.238,+00.000261,-00.000265,+00.000226*60
"
1712236737.3194401,-090.768,+086.379,-113.106,-00.2275,+00.1985,-00.5898,+09.785,+00.560,+00.262,+00.001389,+00.001229,+00.000414,"$VNYMR,-090.768,+086.379,-113.106,-00.2275,+00.1985,-00.5898,+09.785,+00.560,+00.262,+00.001389,+00.001229,+00.000414*6E
"
1712236737.345305,-090.817,+086.379,-113.157,-00.2275,+00.1985,-00.5738,+09.818,+00.578,+00.270,+00.000861,+00.001343,-00.000427,"$VNYMR,-090.817,+086.379,-113.157,-00.2275,+00.1985,-00.5738,+09.818,+00.578,+00.270,+00.000861,+00.001343,-00.000427*6E
"
1712236737.3678176,-090.881,+086.377,-113.220,-00.2251,+00.2102,-00.5804,+09.783,+00.566,+00.250,+00.000055,+00.001254,+00.000096,"$VNYMR,-090.881,+086.377,-113.220,-00.2251,+00.2102,-00.5804,+09.783,+00.566,+00.250,+00.000055,+00.001254,+00.000096*6E
"
1712236737.3922708,-090.903,+086.376,-113.243,-00.2263,+00.2067,-00.5845,+09.802,+00.540,+00.243,-00.000920,+00.002290,+00.000323,"$VNYMR,-090.903,+086.376,-113.243,-00.2263,+00.2067,-00.5845,+09.802,+00.540,+00.243,-00.000920,+00.002290,+00.000323*6C
"
1712236737.4169557,-090.967,+086.375,-113.307,-00.2273,+00.2115,-00.5886,+09.768,+00.579,+00.251,+00.000477,+00.003213,+00.000404,"$VNYMR,-090.967,+086.375,-113.307,-00.2273,+00.2115,-00.5886,+09.768,+00.579,+00.251,+00.000477,+00.003213,+00.000404*6D
"
1712236737.4426901,-091.000,+086.374,-113.341,-00.2274,+00.2079,-00.5672,+09.794,+00.576,+00.239,+00.000894,+00.001668,+00.000603,"$VNYMR,-091.000,+086.374,-113.341,-00.2274,+00.2079,-00.5672,+09.794,+00.576,+00.239,+00.000894,+00.001668,+00.000603*62
"
1712236737.4670243,-091.039,+086.373,-113.377,-00.2274,+00.2044,-00.5832,+09.774,+00.575,+00.276,+00.000842,+00.000858,-00.000410,"$VNYMR,-091.039,+086.373,-113.377,-00.2274,+00.2044,-00.5832,+09.774,+00.575,+00.276,+00.000842,+00.000858,-00.000410*69
"
1712236737.4923797,-091.105,+086.372,-113.441,-00.2286,+00.2032,-00.5765,+09.796,+00.569,+00.283,+00.000350,-00.000034,+00.000954,"$VNYMR,-091.105,+086.372,-113.441,-00.2286,+00.2032,-00.5765,+09.796,+00.569,+00.283,+00.000350,-00.000034,+00.000954*69
"
1712236737.5170465,-091.098,+086.374,-113.433,-00.2262,+00.2091,-00.5805,+09.779,+00.572,+00.264,+00.000973,+00.001522,-00.000077,"$VNYMR,-091.098,+086.374,-113.433,-00.2262,+00.2091,-00.5805,+09.779,+00.572,+00.264,+00.000973,+00.001522,-00.000077*67
"
1712236737.5444527,-091.110,+086.376,-113.443,-00.2240,+00.2079,-00.5884,+09.764,+00.566,+00.228,+00.000217,+00.001427,+00.000681,"$VNYMR,-091.110,+086.376,-113.443,-00.2240,+00.2079,-00.5884,+09.764,+00.566,+00.228,+00.000217,+00.001427,+00.000681*69
"
1712236737.566985,-091.160,+086.376,-113.491,-00.2263,+00.2044,-00.5831,+09.776,+00.544,+00.247,-00.000224,+00.002320,+00.000084,"$VNYMR,-091.160,+086.376,-113.491,-00.2263,+00.2044,-00.5831,+09.776,+00.544,+00.247,-00.000224,+00.002320,+00.000084*6C
"
1712236737.5920346,-091.201,+086.376,-113.531,-00.2264,+00.2020,-00.5711,+09.776,+00.579,+00.269,-00.000424,+00.002065,+00.000421,"$VNYMR,-091.201,+086.376,-113.531,-00.2264,+00.2020,-00.5711,+09.776,+00.579,+00.269,-00.000424,+00.002065,+00.000421*66
"
1712236737.619665,-091.284,+086.374,-113.614,-00.2275,+00.1996,-00.5844,+09.764,+00.571,+00.263,-00.000299,+00.003744,+00.001658,"$VNYMR,-091.284,+086.374,-113.614,-00.2275,+00.1996,-00.5844,+09.764,+00.571,+00.263,-00.000299,+00.003744,+00.001658*6C
"
1712236737.644617,-091.362,+086.373,-113.694,-00.2286,+00.2008,-00.5752,+09.781,+00.562,+00.261,+00.000452,+00.006164,-00.000057,"$VNYMR,-091.362,+086.373,-113.694,-00.2286,+00.2008,-00.5752,+09.781,+00.562,+00.261,+00.000452,+00.006164,-00.000057*60
"
1712236737.6670477,-091.429,+086.372,-113.761,-00.2262,+00.2126,-00.5805,+09.799,+00.575,+00.244,-00.000487,+00.006640,-00.000546,"$VNYMR,-091.429,+086.372,-113.761,-00.2262,+00.2126,-00.5805,+09.799,+00.575,+00.244,-00.000487,+00.006640,-00.000546*6A
"
1712236737.6947715,-091.541,+086.369,-113.873,-00.2238,+00.2173,-00.5871,+09.798,+00.529,+00.213,-00.000124,+00.004870,-00.000842,"$VNYMR,-091.541,+086.369,-113.873,-00.2238,+00.2173,-00.5871,+09.798,+00.529,+00.213,-00.000124,+00.004870,-00.000842*6F
"
1712236737.717057,-091.621,+086.368,-113.950,-00.2253,+00.2020,-00.5897,+09.790,+00.584,+00.267,-00.000135,+00.002655,+00.002306,"$VNYMR,-091.621,+086.368,-113.950,-00.2253,+00.2020,-00.5897,+09.790,+00.584,+00.267,-00.000135,+00.002655,+00.002306*65
"
1712236737.7419693,-091.717,+086.368,-114.048,-00.2298,+00.1985,-00.5699,+09.816,+00.574,+00.281,-00.000625,+00.003753,+00.002122,"$VNYMR,-091.717,+086.368,-114.048,-00.2298,+00.1985,-00.5699,+09.816,+00.574,+00.281,-00.000625,+00.003753,+00.002122*66
"
1712236737.7668223,-091.827,+086.367,-114.160,-00.2264,+00.1996,-00.5830,+09.792,+00.544,+00.221,+00.000190,+00.004549,+00.001292,"$VNYMR,-091.827,+086.367,-114.160,-00.2264,+00.1996,-00.5830,+09.792,+00.544,+00.221,+00.000190,+00.004549,+00.001292*62
"
1712236737.7947664,-091.919,+086.365,-114.252,-00.2252,+00.2032,-00.5830,+09.815,+00.572,+00.277,-00.000067,+00.003470,-00.000193,"$VNYMR,-091.919,+086.365,-114.252,-00.2252,+00.2032,-00.5830,+09.815,+00.572,+00.277,-00.000067,+00.003470,-00.000193*6F
"
1712236737.8167439,-091.961,+086.366,-114.295,-00.2284,+00.2091,-00.5833,+09.746,+00.567,+00.239,+00.000691,+00.003078,+00.000728,"$VNYMR,-091.961,+086.366,-114.295,-00.2284,+00.2091,-00.5833,+09.746,+00.567,+00.239,+00.000691,+00.003078,+00.000728*6B
"
1712236737.841998,-092.049,+086.365,-114.382,-00.2251,+00.2091,-00.5844,+09.811,+00.546,+00.249,+00.000734,+00.002841,+00.001123,"$VNYMR,-092.049,+086.365,-114.382,-00.2251,+00.2091,-00.5844,+09.811,+00.546,+00.249,+00.000734,+00.002841,+00.001123*6F
"
1712236737.867202,-092.128,+086.364,-114.462,-00.2253,+00.1984,-00.5830,+09.765,+00.569,+00.262,-00.000661,+00.001662,+00.000524,"$VNYMR,-092.128,+086.364,-114.462,-00.2253,+00.1984,-00.5830,+09.765,+00.569,+00.262,-00.000661,+00.001662,+00.000524*6F
"
1712236737.894476,-092.225,+086.363,-114.559,-00.2275,+00.2008,-00.5711,+09.804,+00.556,+00.206,+00.000308,+00.002706,+00.001562,"$VNYMR,-092.225,+086.363,-114.559,-00.2275,+00.2008,-00.5711,+09.804,+00.556,+00.206,+00.000308,+00.002706,+00.001562*60
"
1712236737.9170036,-092.338,+086.362,-114.668,-00.2240,+00.2079,-00.5857,+09.792,+00.578,+00.239,+00.001305,+00.004595,+00.001438,"$VNYMR,-092.338,+086.362,-114.668,-00.2240,+00.2079,-00.5857,+09.792,+00.578,+00.239,+00.001305,+00.004595,+00.001438*6C
"
1712236737.942587,-092.442,+086.361,-114.773,-00.2264,+00.1984,-00.5790,+09.763,+00.541,+00.234,-00.000310,+00.005413,+00.000623,"$VNYMR,-092.442,+086.361,-114.773,-00.2264,+00.1984,-00.5790,+09.763,+00.541,+00.234,-00.000310,+00.005413,+00.000623*69
"
1712236737.9667516,-092.539,+086.360,-114.869,-00.2284,+00.2115,-00.5820,+09.820,+00.571,+00.269,+00.000244,+00.004954,+00.000817,"$VNYMR,-092.539,+086.360,-114.869,-00.2284,+00.2115,-00.5820,+09.820,+00.571,+00.269,+00.000244,+00.004954,+00.000817*6B
"
1712236737.9918718,-092.633,+086.360,-114.961,-00.2262,+00.2103,-00.5872,+09.799,+00.540,+00.278,+00.000375,+00.006175,+00.001747,"$VNYMR,-092.633,+086.360,-114.961,-00.2262,+00.2103,-00.5872,+09.799,+00.540,+00.278,+00.000375,+00.006175,+00.001747*6D
"
1712236738.0168905,-092.730,+086.359,-115.059,-00.2240,+00.2090,-00.5870,+09.799,+00.552,+00.265,-00.000428,+00.004825,+00.000555,"$VNYMR,-092.730,+086.359,-115.059,-00.2240,+00.2090,-00.5870,+09.799,+00.552,+00.265,-00.000428,+00.004825,+00.000555*67
"
1712236738.0444012,-092.814,+086.358,-115.147,-00.2286,+00.2008,-00.5725,+09.822,+00.577,+00.258,+00.000048,+00.002780,+00.000847,"$VNYMR,-092.814,+086.358,-115.147,-00.2286,+00.2008,-00.5725,+09.822,+00.577,+00.258,+00.000048,+00.002780,+00.000847*6F
"
1712236738.0667627,-092.915,+086.355,-115.249,-00.2275,+00.1997,-00.5951,+09.756,+00.575,+00.269,-00.000638,+00.001267,+00.000588,"$VNYMR,-092.915,+086.355,-115.249,-00.2275,+00.1997,-00.5951,+09.756,+00.575,+00.269,-00.000638,+00.001267,+00.000588*68
"
1712236738.0945342,-092.937,+086.353,-115.270,-00.2275,+00.2032,-00.5805,+09.818,+00.585,+00.240,+00.000562,+00.001301,-00.000823,"$VNYMR,-092.937,+086.353,-115.270,-00.2275,+00.2032,-00.5805,+09.818,+00.585,+00.240,+00.000562,+00.001301,-00.000823*61
"
1712236738.1169426,-092.952,+086.353,-115.286,-00.2262,+00.2114,-00.5832,+09.774,+00.572,+00.277,-00.000027,+00.000694,+00.000285,"$VNYMR,-092.952,+086.353,-115.286,-00.2262,+00.2114,-00.5832,+09.774,+00.572,+00.277,-00.000027,+00.000694,+00.000285*6F
"
1712236738.1417305,-092.996,+086.354,-115.331,-00.2241,+00.2067,-00.5883,+09.823,+00.547,+00.261,+00.000336,+00.001401,+00.001001,"$VNYMR,-092.996,+086.354,-115.331,-00.2241,+00.2067,-00.5883,+09.823,+00.547,+00.261,+00.000336,+00.001401,+00.001001*6A
"
1712236738.1699839,-093.046,+086.353,-115.380,-00.2263,+00.2044,-00.5858,+09.775,+00.558,+00.274,+00.000537,+00.000719,+00.001612,"$VNYMR,-093.046,+086.353,-115.380,-00.2263,+00.2044,-00.5858,+09.775,+00.558,+00.274,+00.000537,+00.000719,+00.001612*6B
"
1712236738.1920605,-093.084,+086.353,-115.417,-00.2275,+00.1996,-00.5724,+09.814,+00.553,+00.235,-00.000116,+00.003200,+00.000084,"$VNYMR,-093.084,+086.353,-115.417,-00.2275,+00.1996,-00.5724,+09.814,+00.553,+00.235,-00.000116,+00.003200,+00.000084*6B
"
1712236738.2164845,-093.151,+086.352,-115.486,-00.2264,+00.2020,-00.5857,+09.786,+00.565,+00.250,+00.000441,+00.001418,+00.000163,"$VNYMR,-093.151,+086.352,-115.486,-00.2264,+00.2020,-00.5857,+09.786,+00.565,+00.250,+00.000441,+00.001418,+00.000163*61
"
1712236738.244208,-093.188,+086.351,-115.523,-00.2253,+00.2020,-00.5777,+09.797,+00.564,+00.247,+00.000196,+00.003983,-00.000731,"$VNYMR,-093.188,+086.351,-115.523,-00.2253,+00.2020,-00.5777,+09.797,+00.564,+00.247,+00.000196,+00.003983,-00.000731*63
"
1712236738.2685735,-093.263,+086.348,-115.599,-00.2284,+00.2091,-00.5846,+09.812,+00.568,+00.291,-00.000627,+00.001816,-00.000554,"$VNYMR,-093.263,+086.348,-115.599,-00.2284,+00.2091,-00.5846,+09.812,+00.568,+00.291,-00.000627,+00.001816,-00.000554*61
"
1712236738.2917998,-093.343,+086.344,-115.677,-00.2251,+00.2091,-00.5844,+09.804,+00.552,+00.254,+00.000399,+00.002100,-00.000927,"$VNYMR,-093.343,+086.344,-115.677,-00.2251,+00.2091,-00.5844,+09.804,+00.552,+00.254,+00.000399,+00.002100,-00.000927*63
"
1712236738.319158,-093.372,+086.344,-115.706,-00.2241,+00.2055,-00.5910,+09.818,+00.561,+00.260,-00.000621,-00.000073,+00.000013,"$VNYMR,-093.372,+086.344,-115.706,-00.2241,+00.2055,-00.5910,+09.818,+00.561,+00.260,-00.000621,-00.000073,+00.000013*6C
"
1712236738.3417673,-093.408,+086.343,-115.744,-00.2264,+00.1984,-00.5750,+09.803,+00.584,+00.272,+00.000670,+00.002504,+00.000098,"$VNYMR,-093.408,+086.343,-115.744,-00.2264,+00.1984,-00.5750,+09.803,+00.584,+00.272,+00.000670,+00.002504,+00.000098*6E
"
1712236738.366878,-093.432,+086.342,-115.766,-00.2252,+00.2043,-00.5870,+09.798,+00.569,+00.275,+00.000359,+00.001732,+00.001240,"$VNYMR,-093.432,+086.342,-115.766,-00.2252,+00.2043,-00.5870,+09.798,+00.569,+00.275,+00.000359,+00.001732,+00.001240*6A
"
1712236738.3927312,-093.398,+086.343,-115.730,-00.2242,+00.1996,-00.5763,+09.784,+00.571,+00.253,-00.000225,-00.000858,+00.000911,"$VNYMR,-093.398,+086.343,-115.730,-00.2242,+00.1996,-00.5763,+09.784,+00.571,+00.253,-00.000225,-00.000858,+00.000911*67
"
1712236738.417006,-093.331,+086.344,-115.661,-00.2249,+00.2185,-00.5859,+09.794,+00.570,+00.261,+00.000728,-00.001076,+00.000438,"$VNYMR,-093.331,+086.344,-115.661,-00.2249,+00.2185,-00.5859,+09.794,+00.570,+00.261,+00.000728,-00.001076,+00.000438*6E
"
1712236738.4461942,-093.323,+086.345,-115.650,-00.2260,+00.2185,-00.5846,+09.790,+00.585,+00.249,+00.000154,-00.000343,+00.000026,"$VNYMR,-093.323,+086.345,-115.650,-00.2260,+00.2185,-00.5846,+09.790,+00.585,+00.249,+00.000154,-00.000343,+00.000026*6D
"
1712236738.4665065,-093.287,+086.345,-115.615,-00.2253,+00.2008,-00.5870,+09.782,+00.571,+00.276,+00.000849,-00.001155,+00.000954,"$VNYMR,-093.287,+086.345,-115.615,-00.2253,+00.2008,-00.5870,+09.782,+00.571,+00.276,+00.000849,-00.001155,+00.000954*6B
"
1712236738.4915526,-093.235,+086.346,-115.562,-00.2252,+00.2032,-00.5790,+09.773,+00.570,+00.235,+00.000507,-00.001454,-00.000392,"$VNYMR,-093.235,+086.346,-115.562,-00.2252,+00.2032,-00.5790,+09.773,+00.570,+00.235,+00.000507,-00.001454,-00.000392*66
"
1712236738.517279,-093.209,+086.348,-115.534,-00.2264,+00.1996,-00.5884,+09.801,+00.541,+00.246,+00.000033,-00.000485,-00.001042,"$VNYMR,-093.209,+086.348,-115.534,-00.2264,+00.1996,-00.5884,+09.801,+00.541,+00.246,+00.000033,-00.000485,-00.001042*63
"
1712236738.54152,-093.177,+086.349,-115.504,-00.2264,+00.2020,-00.5791,+09.786,+00.572,+00.233,+00.000221,+00.000843,-00.000024,"$VNYMR,-093.177,+086.349,-115.504,-00.2264,+00.2020,-00.5791,+09.786,+00.572,+00.233,+00.000221,+00.000843,-00.000024*65
"
1712236738.566443,-093.172,+086.347,-115.499,-00.2284,+00.2127,-00.5833,+09.763,+00.545,+00.229,-00.001398,-00.000762,-00.000637,"$VNYMR,-093.172,+086.347,-115.499,-00.2284,+00.2127,-00.5833,+09.763,+00.545,+00.229,-00.001398,-00.000762,-00.000637*6A
"
1712236738.5915623,-093.119,+086.348,-115.447,-00.2262,+00.2091,-00.5872,+09.813,+00.558,+00.236,-00.000061,+00.001123,-00.000703,"$VNYMR,-093.119,+086.348,-115.447,-00.2262,+00.2091,-00.5872,+09.813,+00.558,+00.236,-00.000061,+00.001123,-00.000703*66
"
1712236738.6166954,-093.093,+086.349,-115.421,-00.2241,+00.2031,-00.5896,+09.800,+00.555,+00.265,+00.000445,-00.001037,-00.000440,"$VNYMR,-093.093,+086.349,-115.421,-00.2241,+00.2031,-00.5896,+09.800,+00.555,+00.265,+00.000445,-00.001037,-00.000440*6E
"
1712236738.6413667,-093.049,+086.349,-115.374,-00.2264,+00.1984,-00.5750,+09.780,+00.561,+00.268,+00.001358,-00.002793,-00.001207,"$VNYMR,-093.049,+086.349,-115.374,-00.2264,+00.1984,-00.5750,+09.780,+00.561,+00.268,+00.001358,-00.002793,-00.001207*61
"
1712236738.6663942,-093.017,+086.349,-115.342,-00.2253,+00.2008,-00.5883,+09.810,+00.553,+00.266,+00.001175,-00.003949,-00.000951,"$VNYMR,-093.017,+086.349,-115.342,-00.2253,+00.2008,-00.5883,+09.810,+00.553,+00.266,+00.001175,-00.003949,-00.000951*61
"
1712236738.6935427,-092.884,+086.353,-115.213,-00.2275,+00.2008,-00.5831,+09.802,+00.557,+00.258,+00.000909,-00.004647,+00.000166,"$VNYMR,-092.884,+086.353,-115.213,-00.2275,+00.2008,-00.5831,+09.802,+00.557,+00.258,+00.000909,-00.004647,+00.000166*65
"
1712236738.7163584,-092.821,+086.355,-115.148,-00.2250,+00.2173,-00.5845,+09.784,+00.567,+00.269,+00.000840,-00.004498,-00.001019,"$VNYMR,-092.821,+086.355,-115.148,-00.2250,+00.2173,-00.5845,+09.784,+00.567,+00.269,+00.000840,-00.004498,-00.001019*6A
"
1712236738.7432609,-092.736,+086.358,-115.061,-00.2239,+00.2138,-00.5924,+09.778,+00.564,+00.233,+00.000055,-00.003706,+00.000859,"$VNYMR,-092.736,+086.358,-115.061,-00.2239,+00.2138,-00.5924,+09.778,+00.564,+00.233,+00.000055,-00.003706,+00.000859*69
"
1712236738.7685475,-092.654,+086.359,-114.980,-00.2262,+00.2103,-00.5872,+09.819,+00.562,+00.248,+00.000050,-00.004062,-00.000826,"$VNYMR,-092.654,+086.359,-114.980,-00.2262,+00.2103,-00.5872,+09.819,+00.562,+00.248,+00.000050,-00.004062,-00.000826*65
"
1712236738.7913525,-092.562,+086.358,-114.891,-00.2275,+00.2020,-00.5738,+09.787,+00.584,+00.271,-00.000017,-00.002204,-00.002198,"$VNYMR,-092.562,+086.358,-114.891,-00.2275,+00.2020,-00.5738,+09.787,+00.584,+00.271,-00.000017,-00.002204,-00.002198*61
"
1712236738.8195925,-092.478,+086.358,-114.805,-00.2251,+00.2079,-00.5844,+09.784,+00.566,+00.226,+00.000593,-00.001580,-00.001188,"$VNYMR,-092.478,+086.358,-114.805,-00.2251,+00.2079,-00.5844,+09.784,+00.566,+00.226,+00.000593,-00.001580,-00.001188*60
"
1712236738.8437538,-092.460,+086.358,-114.787,-00.2286,+00.2008,-00.5832,+09.790,+00.539,+00.284,+00.000038,-00.002848,-00.000949,"$VNYMR,-092.460,+086.358,-114.787,-00.2286,+00.2008,-00.5832,+09.790,+00.539,+00.284,+00.000038,-00.002848,-00.000949*6C
"
1712236738.8692207,-092.428,+086.357,-114.753,-00.2271,+00.2221,-00.5860,+09.808,+00.574,+00.255,+00.000172,-00.003163,-00.002001,"$VNYMR,-092.428,+086.357,-114.753,-00.2271,+00.2221,-00.5860,+09.808,+00.574,+00.255,+00.000172,-00.003163,-00.002001*62
"
1712236738.8912678,-092.389,+086.356,-114.711,-00.2229,+00.2114,-00.5910,+09.782,+00.567,+00.299,-00.000327,-00.002125,-00.001618,"$VNYMR,-092.389,+086.356,-114.711,-00.2229,+00.2114,-00.5910,+09.782,+00.567,+00.299,-00.000327,-00.002125,-00.001618*62
"
1712236738.9181736,-092.286,+086.357,-114.606,-00.2243,+00.1960,-00.5842,+09.787,+00.567,+00.245,+00.000290,-00.004944,-00.002179,"$VNYMR,-092.286,+086.357,-114.606,-00.2243,+00.1960,-00.5842,+09.787,+00.567,+00.245,+00.000290,-00.004944,-00.002179*6D
"
1712236738.9447198,-092.202,+086.359,-114.518,-00.2253,+00.2020,-00.5763,+09.797,+00.576,+00.273,-00.000044,-00.004955,-00.000247,"$VNYMR,-092.202,+086.359,-114.518,-00.2253,+00.2020,-00.5763,+09.797,+00.576,+00.273,-00.000044,-00.004955,-00.000247*65
"
1712236738.9661114,-092.158,+086.358,-114.478,-00.2250,+00.2126,-00.5818,+09.796,+00.570,+00.272,+00.000288,-00.006272,-00.000663,"$VNYMR,-092.158,+086.358,-114.478,-00.2250,+00.2126,-00.5818,+09.796,+00.570,+00.272,+00.000288,-00.006272,-00.000663*64
"
1712236738.9930375,-092.049,+086.359,-114.372,-00.2275,+00.2008,-00.5804,+09.812,+00.565,+00.258,-00.000606,-00.006444,-00.001540,"$VNYMR,-092.049,+086.359,-114.372,-00.2275,+00.2008,-00.5804,+09.812,+00.565,+00.258,-00.000606,-00.006444,-00.001540*65
"
1712236739.0203888,-091.974,+086.360,-114.298,-00.2262,+00.2126,-00.5805,+09.782,+00.567,+00.248,-00.000437,-00.004954,-00.001459,"$VNYMR,-091.974,+086.360,-114.298,-00.2262,+00.2126,-00.5805,+09.782,+00.567,+00.248,-00.000437,-00.004954,-00.001459*66
"
1712236739.0440755,-091.869,+086.363,-114.192,-00.2251,+00.2079,-00.5898,+09.810,+00.569,+00.273,+00.000807,-00.004447,-00.000884,"$VNYMR,-091.869,+086.363,-114.192,-00.2251,+00.2079,-00.5898,+09.810,+00.569,+00.273,+00.000807,-00.004447,-00.000884*67
"
1712236739.0695465,-091.791,+086.364,-114.113,-00.2253,+00.2008,-00.5843,+09.760,+00.572,+00.247,-00.000038,-00.003328,-00.000591,"$VNYMR,-091.791,+086.364,-114.113,-00.2253,+00.2008,-00.5843,+09.760,+00.572,+00.247,-00.000038,-00.003328,-00.000591*64
"
1712236739.093564,-091.723,+086.366,-114.044,-00.2264,+00.2020,-00.5711,+09.798,+00.555,+00.290,+00.000494,-00.002856,-00.000650,"$VNYMR,-091.723,+086.366,-114.044,-00.2264,+00.2020,-00.5711,+09.798,+00.555,+00.290,+00.000494,-00.002856,-00.000650*6B
"
1712236739.1181068,-091.682,+086.367,-113.999,-00.2253,+00.2020,-00.5870,+09.796,+00.565,+00.246,+00.001179,-00.003157,+00.000781,"$VNYMR,-091.682,+086.367,-113.999,-00.2253,+00.2020,-00.5870,+09.796,+00.565,+00.246,+00.001179,-00.003157,+00.000781*61
"
1712236739.143925,-091.612,+086.368,-113.924,-00.2275,+00.1996,-00.5738,+09.821,+00.564,+00.262,+00.000110,-00.001076,-00.000000,"$VNYMR,-091.612,+086.368,-113.924,-00.2275,+00.1996,-00.5738,+09.821,+00.564,+00.262,+00.000110,-00.001076,-00.000000*63
"
1712236739.1701324,-091.581,+086.368,-113.891,-00.2273,+00.2126,-00.5832,+09.788,+00.582,+00.301,-00.001621,-00.003685,-00.001466,"$VNYMR,-091.581,+086.368,-113.891,-00.2273,+00.2126,-00.5832,+09.788,+00.582,+00.301,-00.001621,-00.003685,-00.001466*69
"
1712236739.1922607,-091.508,+086.368,-113.821,-00.2274,+00.2056,-00.5818,+09.786,+00.559,+00.281,-00.000102,-00.003541,-00.001619,"$VNYMR,-091.508,+086.368,-113.821,-00.2274,+00.2056,-00.5818,+09.786,+00.559,+00.281,-00.000102,-00.003541,-00.001619*6D
"
1712236739.2199512,-091.454,+086.368,-113.768,-00.2263,+00.2044,-00.5871,+09.778,+00.555,+00.246,+00.000223,-00.004347,-00.001857,"$VNYMR,-091.454,+086.368,-113.768,-00.2263,+00.2044,-00.5871,+09.778,+00.555,+00.246,+00.000223,-00.004347,-00.001857*6E
"
1712236739.2441814,-091.362,+086.371,-113.676,-00.2275,+00.2032,-00.5818,+09.765,+00.568,+00.287,+00.000603,-00.004127,-00.001084,"$VNYMR,-091.362,+086.371,-113.676,-00.2275,+00.2032,-00.5818,+09.765,+00.568,+00.287,+00.000603,-00.004127,-00.001084*68
"
1712236739.2693787,-091.277,+086.372,-113.591,-00.2265,+00.1973,-00.5937,+09.791,+00.573,+00.251,+00.001211,-00.005457,+00.000032,"$VNYMR,-091.277,+086.372,-113.591,-00.2265,+00.1973,-00.5937,+09.791,+00.573,+00.251,+00.001211,-00.005457,+00.000032*63
"
1712236739.2911506,-091.193,+086.373,-113.507,-00.2263,+00.2044,-00.5738,+09.772,+00.552,+00.289,+00.000954,-00.003504,-00.000975,"$VNYMR,-091.193,+086.373,-113.507,-00.2263,+00.2044,-00.5738,+09.772,+00.552,+00.289,+00.000954,-00.003504,-00.000975*60
"
1712236739.3170269,-091.100,+086.375,-113.416,-00.2261,+00.2138,-00.5792,+09.794,+00.555,+00.251,-00.000194,-00.005135,-00.001658,"$VNYMR,-091.100,+086.375,-113.416,-00.2261,+00.2138,-00.5792,+09.794,+00.555,+00.251,-00.000194,-00.005135,-00.001658*6C
"
1712236739.3421988,-091.054,+086.374,-113.366,-00.2250,+00.2150,-00.5872,+09.780,+00.563,+00.268,-00.000821,-00.002459,-00.001134,"$VNYMR,-091.054,+086.374,-113.366,-00.2250,+00.2150,-00.5872,+09.780,+00.563,+00.268,-00.000821,-00.002459,-00.001134*68
"
1712236739.3675168,-091.024,+086.374,-113.337,-00.2263,+00.2055,-00.5871,+09.789,+00.557,+00.247,-00.000609,-00.001528,-00.000454,"$VNYMR,-091.024,+086.374,-113.337,-00.2263,+00.2055,-00.5871,+09.789,+00.557,+00.247,-00.000609,-00.001528,-00.000454*6D
"
1712236739.3910964,-091.029,+086.374,-113.341,-00.2286,+00.2008,-00.5712,+09.805,+00.579,+00.228,-00.000010,-00.000117,+00.000507,"$VNYMR,-091.029,+086.374,-113.341,-00.2286,+00.2008,-00.5712,+09.805,+00.579,+00.228,-00.000010,-00.000117,+00.000507*60
"
1712236739.4171522,-091.019,+086.373,-113.336,-00.2263,+00.2044,-00.5831,+09.804,+00.551,+00.245,-00.000889,+00.000006,-00.001872,"$VNYMR,-091.019,+086.373,-113.336,-00.2263,+00.2044,-00.5831,+09.804,+00.551,+00.245,-00.000889,+00.000006,-00.001872*6E
"
1712236739.4420094,-090.992,+086.373,-113.308,-00.2264,+00.1984,-00.5764,+09.775,+00.587,+00.224,-00.001321,+00.000130,-00.000682,"$VNYMR,-090.992,+086.373,-113.308,-00.2264,+00.1984,-00.5764,+09.775,+00.587,+00.224,-00.001321,+00.000130,-00.000682*6F
"
1712236739.467334,-090.979,+086.373,-113.295,-00.2294,+00.2174,-00.5874,+09.807,+00.566,+00.283,-00.000814,-00.000170,+00.000123,"$VNYMR,-090.979,+086.373,-113.295,-00.2294,+00.2174,-00.5874,+09.807,+00.566,+00.283,-00.000814,-00.000170,+00.000123*66
"
1712236739.4939272,-090.980,+086.373,-113.298,-00.2262,+00.2079,-00.5818,+09.792,+00.583,+00.265,+00.000071,-00.000809,+00.000106,"$VNYMR,-090.980,+086.373,-113.298,-00.2262,+00.2079,-00.5818,+09.792,+00.583,+00.265,+00.000071,-00.000809,+00.000106*6F
"
1712236739.5167418,-090.982,+086.373,-113.300,-00.2262,+00.2126,-00.5859,+09.796,+00.564,+00.286,-00.000461,-00.001180,-00.000598,"$VNYMR,-090.982,+086.373,-113.300,-00.2262,+00.2126,-00.5859,+09.796,+00.564,+00.286,-00.000461,-00.001180,-00.000598*6C
"
1712236739.5420454,-090.971,+086.372,-113.291,-00.2287,+00.1973,-00.5711,+09.806,+00.571,+00.279,+00.000433,-00.002192,+00.000210,"$VNYMR,-090.971,+086.372,-113.291,-00.2287,+00.1973,-00.5711,+09.806,+00.571,+00.279,+00.000433,-00.002192,+00.000210*69
"
1712236739.5669065,-090.895,+086.376,-113.212,-00.2241,+00.2019,-00.5856,+09.784,+00.554,+00.245,-00.000192,-00.001041,+00.000024,"$VNYMR,-090.895,+086.376,-113.212,-00.2241,+00.2019,-00.5856,+09.784,+00.554,+00.245,-00.000192,-00.001041,+00.000024*61
"
1712236739.5941179,-090.843,+086.377,-113.157,-00.2275,+00.1985,-00.5751,+09.805,+00.569,+00.259,-00.000632,-00.001528,-00.000186,"$VNYMR,-090.843,+086.377,-113.157,-00.2275,+00.1985,-00.5751,+09.805,+00.569,+00.259,-00.000632,-00.001528,-00.000186*64
"
1712236739.6169145,-090.816,+086.379,-113.130,-00.2284,+00.2091,-00.5779,+09.758,+00.562,+00.292,-00.000319,+00.000967,+00.000164,"$VNYMR,-090.816,+086.379,-113.130,-00.2284,+00.2091,-00.5779,+09.758,+00.562,+00.292,-00.000319,+00.000967,+00.000164*6D
"
1712236739.644018,-090.832,+086.380,-113.146,-00.2284,+00.2127,-00.5873,+09.789,+00.574,+00.241,+00.000206,+00.000566,+00.000508,"$VNYMR,-090.832,+086.380,-113.146,-00.2284,+00.2127,-00.5873,+09.789,+00.574,+00.241,+00.000206,+00.000566,+00.000508*6A
"
1712236739.6693282,-090.899,+086.378,-113.216,-00.2263,+00.2032,-00.5844,+09.781,+00.594,+00.263,-00.000232,+00.001356,+00.000140,"$VNYMR,-090.899,+086.378,-113.216,-00.2263,+00.2032,-00.5844,+09.781,+00.594,+00.263,-00.000232,+00.001356,+00.000140*69
"
1712236739.694702,-090.946,+086.376,-113.261,-00.2276,+00.1973,-00.5737,+09.787,+00.561,+00.244,-00.001139,+00.002593,-00.000522,"$VNYMR,-090.946,+086.376,-113.261,-00.2276,+00.1973,-00.5737,+09.787,+00.561,+00.244,-00.001139,+00.002593,-00.000522*6E
"
1712236739.7192876,-091.000,+086.375,-113.316,-00.2275,+00.2008,-00.5858,+09.830,+00.594,+00.261,-00.000305,+00.002893,+00.001538,"$VNYMR,-091.000,+086.375,-113.316,-00.2275,+00.2008,-00.5858,+09.830,+00.594,+00.261,-00.000305,+00.002893,+00.001538*66
"
1712236739.7435255,-091.076,+086.373,-113.389,-00.2274,+00.2067,-00.5792,+09.811,+00.585,+00.278,-00.000041,+00.002364,-00.000528,"$VNYMR,-091.076,+086.373,-113.389,-00.2274,+00.2067,-00.5792,+09.811,+00.585,+00.278,-00.000041,+00.002364,-00.000528*6B
"
1712236739.7667534,-091.125,+086.372,-113.438,-00.2296,+00.2091,-00.5767,+09.775,+00.559,+00.275,-00.000371,+00.002351,+00.000259,"$VNYMR,-091.125,+086.372,-113.438,-00.2296,+00.2091,-00.5767,+09.775,+00.559,+00.275,-00.000371,+00.002351,+00.000259*6F
"
1712236739.7939878,-091.194,+086.371,-113.504,-00.2251,+00.2079,-00.5857,+09.786,+00.554,+00.286,+00.000074,+00.001615,+00.001735,"$VNYMR,-091.194,+086.371,-113.504,-00.2251,+00.2079,-00.5857,+09.786,+00.554,+00.286,+00.000074,+00.001615,+00.001735*6C
"
1712236739.8167214,-091.266,+086.370,-113.574,-00.2264,+00.2008,-00.5857,+09.804,+00.555,+00.280,-00.000411,+00.001590,+00.000766,"$VNYMR,-091.266,+086.370,-113.574,-00.2264,+00.2008,-00.5857,+09.804,+00.555,+00.280,-00.000411,+00.001590,+00.000766*6E
"
1712236739.844179,-091.269,+086.371,-113.578,-00.2286,+00.1997,-00.5712,+09.788,+00.555,+00.257,+00.000059,+00.002274,-00.000034,"$VNYMR,-091.269,+086.371,-113.578,-00.2286,+00.1997,-00.5712,+09.788,+00.555,+00.257,+00.000059,+00.002274,-00.000034*65
"
1712236739.8687148,-091.318,+086.372,-113.629,-00.2284,+00.2103,-00.5833,+09.785,+00.559,+00.272,+00.000915,+00.000116,+00.000389,"$VNYMR,-091.318,+086.372,-113.629,-00.2284,+00.2103,-00.5833,+09.785,+00.559,+00.272,+00.000915,+00.000116,+00.000389*6F
"
1712236739.8919117,-091.399,+086.371,-113.710,-00.2298,+00.1961,-00.5765,+09.809,+00.558,+00.246,-00.000316,+00.001259,-00.000247,"$VNYMR,-091.399,+086.371,-113.710,-00.2298,+00.1961,-00.5765,+09.809,+00.558,+00.246,-00.000316,+00.001259,-00.000247*6E
"
1712236739.9166424,-091.480,+086.373,-113.791,-00.2284,+00.2091,-00.5766,+09.749,+00.541,+00.269,+00.001073,+00.001381,+00.001058,"$VNYMR,-091.480,+086.373,-113.791,-00.2284,+00.2091,-00.5766,+09.749,+00.541,+00.269,+00.001073,+00.001381,+00.001058*67
"
1712236739.9443681,-091.578,+086.372,-113.889,-00.2285,+00.2044,-00.5845,+09.780,+00.572,+00.255,-00.000241,+00.003202,+00.000931,"$VNYMR,-091.578,+086.372,-113.889,-00.2285,+00.2044,-00.5845,+09.780,+00.572,+00.255,-00.000241,+00.003202,+00.000931*60
"
1712236739.9671562,-091.664,+086.370,-113.974,-00.2276,+00.1973,-00.5871,+09.766,+00.565,+00.242,+00.000066,+00.005176,+00.001330,"$VNYMR,-091.664,+086.370,-113.974,-00.2276,+00.1973,-00.5871,+09.766,+00.565,+00.242,+00.000066,+00.005176,+00.001330*6F
"
1712236739.99323,-091.736,+086.370,-114.046,-00.2309,+00.1950,-00.5699,+09.773,+00.550,+00.246,+00.000199,+00.005717,-00.000663,"$VNYMR,-091.736,+086.370,-114.046,-00.2309,+00.1950,-00.5699,+09.773,+00.550,+00.246,+00.000199,+00.005717,-00.000663*64
"
1712236740.0193079,-091.814,+086.368,-114.123,-00.2297,+00.2009,-00.5832,+09.783,+00.566,+00.260,-00.000991,+00.004652,-00.000474,"$VNYMR,-091.814,+086.368,-114.123,-00.2297,+00.2009,-00.5832,+09.783,+00.566,+00.260,-00.000991,+00.004652,-00.000474*62
"
1712236740.0417137,-091.927,+086.367,-114.235,-00.2308,+00.2021,-00.5766,+09.805,+00.552,+00.244,-00.000310,+00.005408,+00.000423,"$VNYMR,-091.927,+086.367,-114.235,-00.2308,+00.2021,-00.5766,+09.805,+00.552,+00.244,-00.000310,+00.005408,+00.000423*60
"
1712236740.0666175,-092.054,+086.364,-114.360,-00.2306,+00.2115,-00.5781,+09.778,+00.560,+00.266,+00.000310,+00.003291,+00.000607,"$VNYMR,-092.054,+086.364,-114.360,-00.2306,+00.2115,-00.5781,+09.778,+00.560,+00.266,+00.000310,+00.003291,+00.000607*6B
"
1712236740.0933444,-092.198,+086.361,-114.503,-00.2274,+00.2067,-00.5845,+09.779,+00.573,+00.297,-00.000473,+00.002492,+00.001264,"$VNYMR,-092.198,+086.361,-114.503,-00.2274,+00.2067,-00.5845,+09.779,+00.573,+00.297,-00.000473,+00.002492,+00.001264*66
"
1712236740.1165636,-092.316,+086.360,-114.620,-00.2297,+00.2021,-00.5872,+09.789,+00.551,+00.253,+00.000541,+00.003230,+00.001593,"$VNYMR,-092.316,+086.360,-114.620,-00.2297,+00.2021,-00.5872,+09.789,+00.551,+00.253,+00.000541,+00.003230,+00.001593*6B
"
1712236740.143997,-092.410,+086.359,-114.714,-00.2317,+00.2115,-00.5728,+09.774,+00.560,+00.310,+00.000730,+00.001565,+00.002149,"$VNYMR,-092.410,+086.359,-114.714,-00.2317,+00.2115,-00.5728,+09.774,+00.560,+00.310,+00.000730,+00.001565,+00.002149*6E
"
1712236740.1664681,-092.460,+086.359,-114.763,-00.2308,+00.1997,-00.5859,+09.804,+00.572,+00.260,-00.000044,+00.002976,+00.000584,"$VNYMR,-092.460,+086.359,-114.763,-00.2308,+00.1997,-00.5859,+09.804,+00.572,+00.260,-00.000044,+00.002976,+00.000584*6A
"
1712236740.1933599,-092.517,+086.358,-114.818,-00.2306,+00.2103,-00.5781,+09.789,+00.576,+00.272,-00.000344,+00.004064,-00.000786,"$VNYMR,-092.517,+086.358,-114.818,-00.2306,+00.2103,-00.5781,+09.789,+00.576,+00.272,-00.000344,+00.004064,-00.000786*6F
"
1712236740.2190323,-092.552,+086.357,-114.856,-00.2296,+00.2080,-00.5820,+09.786,+00.559,+00.242,-00.000068,+00.003640,+00.000078,"$VNYMR,-092.552,+086.357,-114.856,-00.2296,+00.2080,-00.5820,+09.786,+00.559,+00.242,-00.000068,+00.003640,+00.000078*66
"
1712236740.2417433,-092.647,+086.355,-114.949,-00.2262,+00.2079,-00.5885,+09.796,+00.555,+00.257,+00.000749,+00.004318,-00.000160,"$VNYMR,-092.647,+086.355,-114.949,-00.2262,+00.2079,-00.5885,+09.796,+00.555,+00.257,+00.000749,+00.004318,-00.000160*64
"
1712236740.2663515,-092.757,+086.353,-115.058,-00.2275,+00.1996,-00.5858,+09.772,+00.563,+00.275,+00.000920,+00.005227,+00.000263,"$VNYMR,-092.757,+086.353,-115.058,-00.2275,+00.1996,-00.5858,+09.772,+00.563,+00.275,+00.000920,+00.005227,+00.000263*63
"
1712236740.2915013,-092.874,+086.350,-115.175,-00.2275,+00.1996,-00.5738,+09.787,+00.553,+00.235,-00.000529,+00.004405,+00.000451,"$VNYMR,-092.874,+086.350,-115.175,-00.2275,+00.1996,-00.5738,+09.787,+00.553,+00.235,-00.000529,+00.004405,+00.000451*67
"
1712236740.3190372,-092.962,+086.348,-115.262,-00.2263,+00.2044,-00.5858,+09.806,+00.592,+00.239,+00.000652,+00.006222,+00.000029,"$VNYMR,-092.962,+086.348,-115.262,-00.2263,+00.2044,-00.5858,+09.806,+00.592,+00.239,+00.000652,+00.006222,+00.000029*62
"
1712236740.3424652,-093.064,+086.345,-115.363,-00.2286,+00.1997,-00.5778,+09.808,+00.558,+00.300,-00.000030,+00.003587,+00.000865,"$VNYMR,-093.064,+086.345,-115.363,-00.2286,+00.1997,-00.5778,+09.808,+00.558,+00.300,-00.000030,+00.003587,+00.000865*69
"
1712236740.3666253,-093.185,+086.342,-115.482,-00.2284,+00.2115,-00.5806,+09.766,+00.572,+00.301,-00.000123,+00.002598,+00.000750,"$VNYMR,-093.185,+086.342,-115.482,-00.2284,+00.2115,-00.5806,+09.766,+00.572,+00.301,-00.000123,+00.002598,+00.000750*66
"
1712236740.3917887,-093.198,+086.340,-115.495,-00.2285,+00.2056,-00.5832,+09.806,+00.542,+00.256,+00.000420,+00.002133,-00.000697,"$VNYMR,-093.198,+086.340,-115.495,-00.2285,+00.2056,-00.5832,+09.806,+00.542,+00.256,+00.000420,+00.002133,-00.000697*6E
"
1712236740.419227,-093.249,+086.341,-115.545,-00.2285,+00.2056,-00.5819,+09.800,+00.575,+00.263,+00.000118,+00.001179,+00.001270,"$VNYMR,-093.249,+086.341,-115.545,-00.2285,+00.2056,-00.5819,+09.800,+00.575,+00.263,+00.000118,+00.001179,+00.001270*68
"
1712236740.4425237,-093.226,+086.342,-115.524,-00.2297,+00.2009,-00.5779,+09.761,+00.558,+00.243,-00.000141,+00.002445,+00.000728,"$VNYMR,-093.226,+086.342,-115.524,-00.2297,+00.2009,-00.5779,+09.761,+00.558,+00.243,-00.000141,+00.002445,+00.000728*6A
"
1712236740.466235,-093.265,+086.341,-115.563,-00.2265,+00.1973,-00.5844,+09.797,+00.550,+00.287,+00.000202,+00.000776,+00.000468,"$VNYMR,-093.265,+086.341,-115.563,-00.2265,+00.1973,-00.5844,+09.797,+00.550,+00.287,+00.000202,+00.000776,+00.000468*6B
"
1712236740.4917316,-093.292,+086.342,-115.590,-00.2308,+00.2033,-00.5793,+09.781,+00.568,+00.250,+00.000329,+00.001061,+00.000818,"$VNYMR,-093.292,+086.342,-115.590,-00.2308,+00.2033,-00.5793,+09.781,+00.568,+00.250,+00.000329,+00.001061,+00.000818*68
"
1712236740.5177536,-093.362,+086.340,-115.662,-00.2306,+00.2103,-00.5874,+09.786,+00.553,+00.247,-00.000250,+00.002565,+00.000992,"$VNYMR,-093.362,+086.340,-115.662,-00.2306,+00.2103,-00.5874,+09.786,+00.553,+00.247,-00.000250,+00.002565,+00.000992*61
"
1712236740.5413334,-093.403,+086.340,-115.703,-00.2285,+00.2068,-00.5846,+09.791,+00.567,+00.252,+00.000124,+00.002542,+00.000088,"$VNYMR,-093.403,+086.340,-115.703,-00.2285,+00.2068,-00.5846,+09.791,+00.567,+00.252,+00.000124,+00.002542,+00.000088*64
"
1712236740.5661814,-093.477,+086.338,-115.774,-00.2297,+00.2032,-00.5859,+09.761,+00.561,+00.234,+00.001271,+00.001866,-00.000377,"$VNYMR,-093.477,+086.338,-115.774,-00.2297,+00.2032,-00.5859,+09.761,+00.561,+00.234,+00.001271,+00.001866,-00.000377*6C
"
1712236740.5917804,-093.506,+086.337,-115.805,-00.2308,+00.2009,-00.5753,+09.794,+00.594,+00.223,+00.000036,+00.004596,-00.001036,"$VNYMR,-093.506,+086.337,-115.805,-00.2308,+00.2009,-00.5753,+09.794,+00.594,+00.223,+00.000036,+00.004596,-00.001036*61
"
1712236740.6167505,-093.558,+086.334,-115.860,-00.2298,+00.1985,-00.5885,+09.765,+00.541,+00.298,+00.000033,+00.001857,-00.000769,"$VNYMR,-093.558,+086.334,-115.860,-00.2298,+00.1985,-00.5885,+09.765,+00.541,+00.298,+00.000033,+00.001857,-00.000769*62
"
1712236740.6452737,-093.612,+086.331,-115.913,-00.2319,+00.2021,-00.5807,+09.807,+00.575,+00.280,+00.000056,+00.002184,-00.000830,"$VNYMR,-093.612,+086.331,-115.913,-00.2319,+00.2021,-00.5807,+09.807,+00.575,+00.280,+00.000056,+00.002184,-00.000830*68
"
1712236740.6665022,-093.566,+086.331,-115.868,-00.2306,+00.2115,-00.5821,+09.794,+00.582,+00.283,+00.000896,+00.001904,-00.000151,"$VNYMR,-093.566,+086.331,-115.868,-00.2306,+00.2115,-00.5821,+09.794,+00.582,+00.283,+00.000896,+00.001904,-00.000151*6E
"
1712236740.6917117,-093.561,+086.331,-115.862,-00.2296,+00.2080,-00.5833,+09.804,+00.582,+00.265,+00.000754,-00.000269,-00.000356,"$VNYMR,-093.561,+086.331,-115.862,-00.2296,+00.2080,-00.5833,+09.804,+00.582,+00.265,+00.000754,-00.000269,-00.000356*68
"
1712236740.719484,-093.488,+086.333,-115.788,-00.2296,+00.2056,-00.5846,+09.788,+00.567,+00.263,+00.000742,-00.000736,-00.000049,"$VNYMR,-093.488,+086.333,-115.788,-00.2296,+00.2056,-00.5846,+09.788,+00.567,+00.263,+00.000742,-00.000736,-00.000049*6D
"
1712236740.743577,-093.487,+086.332,-115.784,-00.2285,+00.2068,-00.5792,+09.807,+00.567,+00.207,-00.000521,-00.001136,-00.000260,"$VNYMR,-093.487,+086.332,-115.784,-00.2285,+00.2068,-00.5792,+09.807,+00.567,+00.207,-00.000521,-00.001136,-00.000260*63
"
1712236740.7661207,-093.437,+086.333,-115.737,-00.2308,+00.1997,-00.5859,+09.780,+00.548,+00.263,-00.000217,-00.001244,-00.000236,"$VNYMR,-093.437,+086.333,-115.737,-00.2308,+00.1997,-00.5859,+09.780,+00.548,+00.263,-00.000217,-00.001244,-00.000236*6F
"
1712236740.7914033,-093.388,+086.335,-115.689,-00.2308,+00.1997,-00.5846,+09.759,+00.556,+00.256,+00.000847,-00.001985,-00.000717,"$VNYMR,-093.388,+086.335,-115.689,-00.2308,+00.1997,-00.5846,+09.759,+00.556,+00.256,+00.000847,-00.001985,-00.000717*64
"
1712236740.818436,-093.349,+086.336,-115.651,-00.2327,+00.2175,-00.5782,+09.817,+00.574,+00.239,-00.000180,+00.000567,-00.000342,"$VNYMR,-093.349,+086.336,-115.651,-00.2327,+00.2175,-00.5782,+09.817,+00.574,+00.239,-00.000180,+00.000567,-00.000342*69
"
1712236740.84128,-093.327,+086.336,-115.628,-00.2274,+00.2067,-00.5832,+09.764,+00.545,+00.277,-00.000391,-00.001259,-00.000303,"$VNYMR,-093.327,+086.336,-115.628,-00.2274,+00.2067,-00.5832,+09.764,+00.545,+00.277,-00.000391,-00.001259,-00.000303*67
"
1712236740.8683097,-093.336,+086.337,-115.638,-00.2286,+00.2009,-00.5872,+09.787,+00.531,+00.266,+00.000361,+00.000383,-00.000351,"$VNYMR,-093.336,+086.337,-115.638,-00.2286,+00.2009,-00.5872,+09.787,+00.531,+00.266,+00.000361,+00.000383,-00.000351*67
"
1712236740.8910666,-093.311,+086.338,-115.611,-00.2309,+00.1985,-00.5726,+09.808,+00.553,+00.288,+00.000327,+00.000979,-00.000763,"$VNYMR,-093.311,+086.338,-115.611,-00.2309,+00.1985,-00.5726,+09.808,+00.553,+00.288,+00.000327,+00.000979,-00.000763*64
"
1712236740.916686,-093.345,+086.336,-115.643,-00.2285,+00.2056,-00.5886,+09.809,+00.580,+00.257,+00.000606,+00.000532,-00.001203,"$VNYMR,-093.345,+086.336,-115.643,-00.2285,+00.2056,-00.5886,+09.809,+00.580,+00.257,+00.000606,+00.000532,-00.001203*62
"
1712236740.941276,-093.284,+086.336,-115.583,-00.2308,+00.1997,-00.5779,+09.782,+00.564,+00.268,-00.000684,-00.000402,-00.001604,"$VNYMR,-093.284,+086.336,-115.583,-00.2308,+00.1997,-00.5779,+09.782,+00.564,+00.268,-00.000684,-00.000402,-00.001604*6C
"
1712236740.9678428,-093.253,+086.336,-115.553,-00.2317,+00.2104,-00.5861,+09.780,+00.578,+00.257,-00.000040,-00.002790,-00.000798,"$VNYMR,-093.253,+086.336,-115.553,-00.2317,+00.2104,-00.5861,+09.780,+00.578,+00.257,-00.000040,-00.002790,-00.000798*60
"
1712236740.991074,-093.167,+086.338,-115.465,-00.2285,+00.2079,-00.5899,+09.801,+00.581,+00.284,+00.000684,-00.002604,-00.001322,"$VNYMR,-093.167,+086.338,-115.465,-00.2285,+00.2079,-00.5899,+09.801,+00.581,+00.284,+00.000684,-00.002604,-00.001322*66
"
1712236741.0160286,-093.102,+086.339,-115.401,-00.2275,+00.2008,-00.5858,+09.775,+00.554,+00.247,-00.001219,-00.002993,-00.000700,"$VNYMR,-093.102,+086.339,-115.401,-00.2275,+00.2008,-00.5858,+09.775,+00.554,+00.247,-00.001219,-00.002993,-00.000700*6A
"
1712236741.041096,-093.025,+086.340,-115.323,-00.2296,+00.2080,-00.5740,+09.805,+00.569,+00.264,+00.000359,-00.002264,-00.001873,"$VNYMR,-093.025,+086.340,-115.323,-00.2296,+00.2080,-00.5740,+09.805,+00.569,+00.264,+00.000359,-00.002264,-00.001873*60
"
1712236741.0663004,-092.989,+086.341,-115.283,-00.2286,+00.2009,-00.5845,+09.782,+00.567,+00.288,-00.000497,-00.005714,-00.000186,"$VNYMR,-092.989,+086.341,-115.283,-00.2286,+00.2009,-00.5845,+09.782,+00.567,+00.288,-00.000497,-00.005714,-00.000186*66
"
1712236741.0936391,-092.906,+086.343,-115.199,-00.2284,+00.2091,-00.5806,+09.796,+00.564,+00.266,-00.000103,-00.002192,-00.000038,"$VNYMR,-092.906,+086.343,-115.199,-00.2284,+00.2091,-00.5806,+09.796,+00.564,+00.266,-00.000103,-00.002192,-00.000038*6A
"
1712236741.116709,-092.802,+086.343,-115.096,-00.2295,+00.2115,-00.5820,+09.775,+00.573,+00.258,-00.000491,-00.001780,-00.001358,"$VNYMR,-092.802,+086.343,-115.096,-00.2295,+00.2115,-00.5820,+09.775,+00.573,+00.258,-00.000491,-00.001780,-00.001358*62
"
1712236741.1430378,-092.730,+086.343,-115.023,-00.2285,+00.2068,-00.5846,+09.786,+00.567,+00.231,-00.000343,-00.001589,-00.001661,"$VNYMR,-092.730,+086.343,-115.023,-00.2285,+00.2068,-00.5846,+09.786,+00.567,+00.231,-00.000343,-00.001589,-00.001661*62
"
1712236741.1660955,-092.669,+086.344,-114.964,-00.2253,+00.2008,-00.5923,+09.813,+00.567,+00.268,-00.000039,-00.001818,-00.001896,"$VNYMR,-092.669,+086.344,-114.964,-00.2253,+00.2008,-00.5923,+09.813,+00.567,+00.268,-00.000039,-00.001818,-00.001896*6E
"
1712236741.1908684,-092.660,+086.343,-114.959,-00.2297,+00.2020,-00.5712,+09.821,+00.573,+00.235,-00.000122,-00.000107,-00.001949,"$VNYMR,-092.660,+086.343,-114.959,-00.2297,+00.2020,-00.5712,+09.821,+00.573,+00.235,-00.000122,-00.000107,-00.001949*62
"
1712236741.2160218,-092.570,+086.343,-114.870,-00.2275,+00.2008,-00.5871,+09.776,+00.567,+00.257,+00.000126,-00.003309,-00.001608,"$VNYMR,-092.570,+086.343,-114.870,-00.2275,+00.2008,-00.5871,+09.776,+00.567,+00.257,+00.000126,-00.003309,-00.001608*6D
"
1712236741.2411332,-092.511,+086.344,-114.810,-00.2320,+00.1997,-00.5767,+09.788,+00.573,+00.269,-00.000544,-00.002963,-00.000864,"$VNYMR,-092.511,+086.344,-114.810,-00.2320,+00.1997,-00.5767,+09.788,+00.573,+00.269,-00.000544,-00.002963,-00.000864*63
"
1712236741.2662327,-092.436,+086.346,-114.737,-00.2307,+00.2092,-00.5820,+09.761,+00.556,+00.304,-00.000352,-00.003530,-00.001098,"$VNYMR,-092.436,+086.346,-114.737,-00.2307,+00.2092,-00.5820,+09.761,+00.556,+00.304,-00.000352,-00.003530,-00.001098*63
"
1712236741.2910106,-092.359,+086.347,-114.661,-00.2263,+00.2044,-00.5858,+09.815,+00.567,+00.264,+00.000130,-00.006001,-00.000064,"$VNYMR,-092.359,+086.347,-114.661,-00.2263,+00.2044,-00.5858,+09.815,+00.567,+00.264,+00.000130,-00.006001,-00.000064*60
"
1712236741.3158,-092.247,+086.349,-114.548,-00.2274,+00.2056,-00.5858,+09.781,+00.559,+00.261,+00.000248,-00.004387,-00.000930,"$VNYMR,-092.247,+086.349,-114.548,-00.2274,+00.2056,-00.5858,+09.781,+00.559,+00.261,+00.000248,-00.004387,-00.000930*6C
"
1712236741.340884,-092.170,+086.351,-114.472,-00.2297,+00.1997,-00.5792,+09.793,+00.554,+00.229,+00.000313,-00.005052,-00.001173,"$VNYMR,-092.170,+086.351,-114.472,-00.2297,+00.1997,-00.5792,+09.793,+00.554,+00.229,+00.000313,-00.005052,-00.001173*60
"
1712236741.365846,-092.095,+086.351,-114.396,-00.2274,+00.2056,-00.5858,+09.805,+00.563,+00.269,-00.000410,-00.003056,-00.000650,"$VNYMR,-092.095,+086.351,-114.396,-00.2274,+00.2056,-00.5858,+09.805,+00.563,+00.269,-00.000410,-00.003056,-00.000650*63
"
1712236741.3992655,-091.964,+086.354,-114.266,-00.2308,+00.2033,-00.5780,+09.763,+00.579,+00.266,-00.000635,-00.004269,+00.000659,"$VNYMR,-091.964,+086.354,-114.266,-00.2308,+00.2033,-00.5780,+09.763,+00.579,+00.266,-00.000635,-00.004269,+00.000659*67
"
1712236741.429347,-091.867,+086.355,-114.169,-00.2307,+00.2092,-00.5767,+09.781,+00.570,+00.241,+00.000056,-00.003038,-00.001954,"$VNYMR,-091.867,+086.355,-114.169,-00.2307,+00.2092,-00.5767,+09.781,+00.570,+00.241,+00.000056,-00.003038,-00.001954*64
"
1712236741.4435363,-091.817,+086.356,-114.118,-00.2251,+00.2079,-00.5884,+09.808,+00.561,+00.251,-00.000671,-00.001400,-00.001089,"$VNYMR,-091.817,+086.356,-114.118,-00.2251,+00.2079,-00.5884,+09.808,+00.561,+00.251,-00.000671,-00.001400,-00.001089*6D
"
1712236741.4659228,-091.765,+086.357,-114.068,-00.2275,+00.1996,-00.5831,+09.786,+00.545,+00.257,+00.000896,-00.002519,-00.001235,"$VNYMR,-091.765,+086.357,-114.068,-00.2275,+00.1996,-00.5831,+09.786,+00.545,+00.257,+00.000896,-00.002519,-00.001235*64
"
1712236741.4935737,-091.729,+086.358,-114.030,-00.2287,+00.1949,-00.5738,+09.819,+00.553,+00.269,-00.001541,-00.003238,+00.000772,"$VNYMR,-091.729,+086.358,-114.030,-00.2287,+00.1949,-00.5738,+09.819,+00.553,+00.269,-00.001541,-00.003238,+00.000772*60
"
1712236741.515722,-091.667,+086.358,-113.969,-00.2286,+00.1997,-00.5885,+09.794,+00.579,+00.293,-00.000871,-00.003100,-00.000995,"$VNYMR,-091.667,+086.358,-113.969,-00.2286,+00.1997,-00.5885,+09.794,+00.579,+00.293,-00.000871,-00.003100,-00.000995*63
"
1712236741.5407343,-091.625,+086.359,-113.923,-00.2297,+00.2009,-00.5766,+09.787,+00.565,+00.277,+00.001090,-00.004998,-00.000826,"$VNYMR,-091.625,+086.359,-113.923,-00.2297,+00.2009,-00.5766,+09.787,+00.565,+00.277,+00.001090,-00.004998,-00.000826*67
"
1712236741.5656903,-091.581,+086.361,-113.878,-00.2284,+00.2139,-00.5780,+09.767,+00.572,+00.280,+00.000376,-00.004226,-00.001008,"$VNYMR,-091.581,+086.361,-113.878,-00.2284,+00.2139,-00.5780,+09.767,+00.572,+00.280,+00.000376,-00.004226,-00.001008*67
"
1712236741.590733,-091.510,+086.363,-113.810,-00.2263,+00.2044,-00.5818,+09.800,+00.552,+00.285,+00.000184,-00.004271,-00.001113,"$VNYMR,-091.510,+086.363,-113.810,-00.2263,+00.2044,-00.5818,+09.800,+00.552,+00.285,+00.000184,-00.004271,-00.001113*60
"
1712236741.6156535,-091.449,+086.365,-113.748,-00.2318,+00.2092,-00.5874,+09.802,+00.558,+00.253,-00.000057,-00.005025,-00.000985,"$VNYMR,-091.449,+086.365,-113.748,-00.2318,+00.2092,-00.5874,+09.802,+00.558,+00.253,-00.000057,-00.005025,-00.000985*6B
"
1712236741.6409223,-091.374,+086.367,-113.673,-00.2308,+00.2021,-00.5700,+09.770,+00.574,+00.241,+00.000648,-00.003752,+00.001198,"$VNYMR,-091.374,+086.367,-113.673,-00.2308,+00.2021,-00.5700,+09.770,+00.574,+00.241,+00.000648,-00.003752,+00.001198*67
"
1712236741.667955,-091.271,+086.370,-113.571,-00.2275,+00.2020,-00.5805,+09.789,+00.540,+00.264,+00.000139,-00.004066,-00.000474,"$VNYMR,-091.271,+086.370,-113.571,-00.2275,+00.2020,-00.5805,+09.789,+00.540,+00.264,+00.000139,-00.004066,-00.000474*64
"
1712236741.6906846,-091.270,+086.370,-113.567,-00.2296,+00.2056,-00.5779,+09.769,+00.584,+00.276,-00.000744,-00.001111,-00.000871,"$VNYMR,-091.270,+086.370,-113.567,-00.2296,+00.2056,-00.5779,+09.769,+00.584,+00.276,-00.000744,-00.001111,-00.000871*68
"
1712236741.7161965,-091.230,+086.372,-113.528,-00.2296,+00.2091,-00.5793,+09.820,+00.538,+00.273,-00.000666,-00.001325,+00.000477,"$VNYMR,-091.230,+086.372,-113.528,-00.2296,+00.2091,-00.5793,+09.820,+00.538,+00.273,-00.000666,-00.001325,+00.000477*62
"
1712236741.740786,-091.229,+086.372,-113.526,-00.2252,+00.2055,-00.5871,+09.757,+00.551,+00.284,-00.000039,+00.000044,-00.000082,"$VNYMR,-091.229,+086.372,-113.526,-00.2252,+00.2055,-00.5871,+09.757,+00.551,+00.284,-00.000039,+00.000044,-00.000082*68
"
1712236741.7656128,-091.236,+086.371,-113.533,-00.2274,+00.2044,-00.5832,+09.799,+00.587,+00.277,+00.001112,-00.002080,+00.000337,"$VNYMR,-091.236,+086.371,-113.533,-00.2274,+00.2044,-00.5832,+09.799,+00.587,+00.277,+00.001112,-00.002080,+00.000337*6F
"
1712236741.793761,-091.237,+086.371,-113.533,-00.2296,+00.2091,-00.5713,+09.764,+00.561,+00.268,+00.000931,-00.001329,-00.000720,"$VNYMR,-091.237,+086.371,-113.533,-00.2296,+00.2091,-00.5713,+09.764,+00.561,+00.268,+00.000931,-00.001329,-00.000720*6D
"
1712236741.8159115,-091.278,+086.370,-113.573,-00.2276,+00.1961,-00.5871,+09.802,+00.556,+00.257,+00.000338,-00.000990,+00.000433,"$VNYMR,-091.278,+086.370,-113.573,-00.2276,+00.1961,-00.5871,+09.802,+00.556,+00.257,+00.000338,-00.000990,+00.000433*69
"
1712236741.84278,-091.278,+086.372,-113.573,-00.2286,+00.2008,-00.5752,+09.799,+00.552,+00.224,+00.000606,-00.002360,+00.000125,"$VNYMR,-091.278,+086.372,-113.573,-00.2286,+00.2008,-00.5752,+09.799,+00.552,+00.224,+00.000606,-00.002360,+00.000125*6F
"
1712236741.8655722,-091.266,+086.374,-113.559,-00.2263,+00.2067,-00.5751,+09.783,+00.559,+00.270,-00.000409,+00.000541,+00.000461,"$VNYMR,-091.266,+086.374,-113.559,-00.2263,+00.2067,-00.5751,+09.783,+00.559,+00.270,-00.000409,+00.000541,+00.000461*61
"
1712236741.8908148,-091.244,+086.375,-113.539,-00.2274,+00.2079,-00.5845,+09.803,+00.579,+00.266,-00.000367,-00.001899,+00.000898,"$VNYMR,-091.244,+086.375,-113.539,-00.2274,+00.2079,-00.5845,+09.803,+00.579,+00.266,-00.000367,-00.001899,+00.000898*6D
"
1712236741.9159558,-091.222,+086.376,-113.516,-00.2317,+00.2104,-00.5835,+09.775,+00.544,+00.282,+00.001276,-00.001317,-00.000051,"$VNYMR,-091.222,+086.376,-113.516,-00.2317,+00.2104,-00.5835,+09.775,+00.544,+00.282,+00.001276,-00.001317,-00.000051*61
"
1712236741.9405496,-091.207,+086.378,-113.502,-00.2309,+00.1973,-00.5712,+09.822,+00.574,+00.258,+00.000002,-00.000455,-00.000153,"$VNYMR,-091.207,+086.378,-113.502,-00.2309,+00.1973,-00.5712,+09.822,+00.574,+00.258,+00.000002,-00.000455,-00.000153*69
"
1712236741.965699,-091.228,+086.380,-113.526,-00.2252,+00.2067,-00.5844,+09.767,+00.541,+00.254,+00.001051,+00.000344,+00.000675,"$VNYMR,-091.228,+086.380,-113.526,-00.2252,+00.2067,-00.5844,+09.767,+00.541,+00.254,+00.001051,+00.000344,+00.000675*6E
"
1712236741.9933124,-091.328,+086.380,-113.623,-00.2296,+00.2044,-00.5779,+09.796,+00.551,+00.279,+00.000234,+00.000846,+00.000285,"$VNYMR,-091.328,+086.380,-113.623,-00.2296,+00.2044,-00.5779,+09.796,+00.551,+00.279,+00.000234,+00.000846,+00.000285*63
"
1712236742.0153625,-091.419,+086.376,-113.714,-00.2273,+00.2091,-00.5792,+09.780,+00.578,+00.239,+00.000478,+00.003052,+00.000476,"$VNYMR,-091.419,+086.376,-113.714,-00.2273,+00.2091,-00.5792,+09.780,+00.578,+00.239,+00.000478,+00.003052,+00.000476*6E
"
1712236742.0403922,-091.492,+086.375,-113.791,-00.2263,+00.2067,-00.5858,+09.791,+00.545,+00.242,+00.000630,+00.001684,+00.000866,"$VNYMR,-091.492,+086.375,-113.791,-00.2263,+00.2067,-00.5858,+09.791,+00.545,+00.242,+00.000630,+00.001684,+00.000866*6C
"
1712236742.0656948,-091.548,+086.374,-113.849,-00.2284,+00.2115,-00.5846,+09.820,+00.592,+00.274,+00.000524,+00.002342,+00.000929,"$VNYMR,-091.548,+086.374,-113.849,-00.2284,+00.2115,-00.5846,+09.820,+00.592,+00.274,+00.000524,+00.002342,+00.000929*69
"
1712236742.0903287,-091.616,+086.372,-113.920,-00.2296,+00.2044,-00.5686,+09.798,+00.572,+00.283,-00.000117,+00.003140,+00.000653,"$VNYMR,-091.616,+086.372,-113.920,-00.2296,+00.2044,-00.5686,+09.798,+00.572,+00.283,-00.000117,+00.003140,+00.000653*66
"
1712236742.1180906,-091.688,+086.372,-113.989,-00.2253,+00.1984,-00.5843,+09.768,+00.562,+00.258,+00.000273,+00.000292,-00.000190,"$VNYMR,-091.688,+086.372,-113.989,-00.2253,+00.1984,-00.5843,+09.768,+00.562,+00.258,+00.000273,+00.000292,-00.000190*64
"
1712236742.1404996,-091.780,+086.371,-114.082,-00.2308,+00.2009,-00.5793,+09.799,+00.565,+00.268,+00.000876,+00.001795,+00.000926,"$VNYMR,-091.780,+086.371,-114.082,-00.2308,+00.2009,-00.5793,+09.799,+00.565,+00.268,+00.000876,+00.001795,+00.000926*6C
"
1712236742.168266,-091.788,+086.371,-114.091,-00.2271,+00.2197,-00.5833,+09.771,+00.559,+00.289,+00.000136,+00.000910,+00.001558,"$VNYMR,-091.788,+086.371,-114.091,-00.2271,+00.2197,-00.5833,+09.771,+00.559,+00.289,+00.000136,+00.000910,+00.001558*67
"
1712236742.192181,-091.801,+086.373,-114.103,-00.2252,+00.2032,-00.5857,+09.792,+00.570,+00.235,+00.000249,+00.000186,+00.000844,"$VNYMR,-091.801,+086.373,-114.103,-00.2252,+00.2032,-00.5857,+09.792,+00.570,+00.235,+00.000249,+00.000186,+00.000844*60
"
1712236742.2156308,-091.814,+086.373,-114.117,-00.2286,+00.2020,-00.5872,+09.766,+00.560,+00.258,+00.000482,+00.002530,+00.000732,"$VNYMR,-091.814,+086.373,-114.117,-00.2286,+00.2020,-00.5872,+09.766,+00.560,+00.258,+00.000482,+00.002530,+00.000732*69
"
1712236742.2405636,-091.899,+086.372,-114.200,-00.2253,+00.1972,-00.5696,+09.803,+00.574,+00.239,-00.000251,+00.003140,+00.001438,"$VNYMR,-091.899,+086.372,-114.200,-00.2253,+00.1972,-00.5696,+09.803,+00.574,+00.239,-00.000251,+00.003140,+00.001438*63
"
1712236742.265483,-091.979,+086.371,-114.280,-00.2242,+00.2008,-00.5856,+09.758,+00.548,+00.258,+00.000336,+00.002345,+00.000386,"$VNYMR,-091.979,+086.371,-114.280,-00.2242,+00.2008,-00.5856,+09.758,+00.548,+00.258,+00.000336,+00.002345,+00.000386*68
"
1712236742.2907574,-092.087,+086.371,-114.386,-00.2273,+00.2126,-00.5739,+09.793,+00.568,+00.260,-00.000958,+00.003218,+00.000858,"$VNYMR,-092.087,+086.371,-114.386,-00.2273,+00.2126,-00.5739,+09.793,+00.568,+00.260,-00.000958,+00.003218,+00.000858*67
"
1712236742.3167198,-092.148,+086.371,-114.451,-00.2274,+00.2079,-00.5792,+09.792,+00.560,+00.257,+00.000256,+00.003887,+00.000961,"$VNYMR,-092.148,+086.371,-114.451,-00.2274,+00.2079,-00.5792,+09.792,+00.560,+00.257,+00.000256,+00.003887,+00.000961*6C
"
1712236742.3442526,-092.290,+086.368,-114.594,-00.2262,+00.2091,-00.5832,+09.798,+00.571,+00.263,-00.000004,+00.003971,+00.000123,"$VNYMR,-092.290,+086.368,-114.594,-00.2262,+00.2091,-00.5832,+09.798,+00.571,+00.263,-00.000004,+00.003971,+00.000123*66
"
1712236742.3664453,-092.376,+086.365,-114.681,-00.2262,+00.2103,-00.5885,+09.781,+00.573,+00.242,+00.000031,+00.002602,+00.000437,"$VNYMR,-092.376,+086.365,-114.681,-00.2262,+00.2103,-00.5885,+09.781,+00.573,+00.242,+00.000031,+00.002602,+00.000437*60
"
1712236742.3905504,-092.497,+086.363,-114.802,-00.2264,+00.1996,-00.5750,+09.794,+00.573,+00.279,-00.000053,+00.002541,+00.001372,"$VNYMR,-092.497,+086.363,-114.802,-00.2264,+00.1996,-00.5750,+09.794,+00.573,+00.279,-00.000053,+00.002541,+00.001372*60
"
1712236742.4152489,-092.576,+086.362,-114.880,-00.2264,+00.1984,-00.5844,+09.813,+00.553,+00.256,-00.000460,+00.004270,+00.000745,"$VNYMR,-092.576,+086.362,-114.880,-00.2264,+00.1984,-00.5844,+09.813,+00.553,+00.256,-00.000460,+00.004270,+00.000745*65
"
1712236742.4422383,-092.649,+086.362,-114.950,-00.2231,+00.1996,-00.5762,+09.801,+00.573,+00.290,-00.000329,+00.002489,-00.000352,"$VNYMR,-092.649,+086.362,-114.950,-00.2231,+00.1996,-00.5762,+09.801,+00.573,+00.290,-00.000329,+00.002489,-00.000352*6D
"
1712236742.4662476,-092.705,+086.362,-115.004,-00.2305,+00.2186,-00.5821,+09.785,+00.581,+00.233,+00.001375,+00.003065,+00.001173,"$VNYMR,-092.705,+086.362,-115.004,-00.2305,+00.2186,-00.5821,+09.785,+00.581,+00.233,+00.001375,+00.003065,+00.001173*61
"
1712236742.4912457,-092.768,+086.361,-115.068,-00.2273,+00.2115,-00.5846,+09.797,+00.573,+00.254,-00.000994,+00.000686,+00.001127,"$VNYMR,-092.768,+086.361,-115.068,-00.2273,+00.2115,-00.5846,+09.797,+00.573,+00.254,-00.000994,+00.000686,+00.001127*6C
"
1712236742.516256,-092.802,+086.361,-115.102,-00.2241,+00.2020,-00.5883,+09.799,+00.549,+00.257,-00.000091,+00.002198,+00.000041,"$VNYMR,-092.802,+086.361,-115.102,-00.2241,+00.2020,-00.5883,+09.799,+00.549,+00.257,-00.000091,+00.002198,+00.000041*6F
"
1712236742.5402842,-092.862,+086.361,-115.160,-00.2287,+00.1985,-00.5698,+09.772,+00.529,+00.263,-00.000423,+00.002011,-00.000133,"$VNYMR,-092.862,+086.361,-115.160,-00.2287,+00.1985,-00.5698,+09.772,+00.529,+00.263,-00.000423,+00.002011,-00.000133*6D
"
1712236742.5666866,-092.945,+086.360,-115.240,-00.2275,+00.2020,-00.5831,+09.781,+00.562,+00.298,-00.000440,+00.005546,-00.000085,"$VNYMR,-092.945,+086.360,-115.240,-00.2275,+00.2020,-00.5831,+09.781,+00.562,+00.298,-00.000440,+00.005546,-00.000085*62
"
1712236742.5903013,-093.025,+086.358,-115.319,-00.2252,+00.2055,-00.5804,+09.790,+00.578,+00.247,-00.000478,+00.004864,-00.000408,"$VNYMR,-093.025,+086.358,-115.319,-00.2252,+00.2055,-00.5804,+09.790,+00.578,+00.247,-00.000478,+00.004864,-00.000408*64
"
1712236742.6160717,-093.114,+086.355,-115.410,-00.2251,+00.2079,-00.5791,+09.781,+00.565,+00.262,-00.000774,+00.005659,+00.000698,"$VNYMR,-093.114,+086.355,-115.410,-00.2251,+00.2079,-00.5791,+09.781,+00.565,+00.262,-00.000774,+00.005659,+00.000698*62
"
1712236742.6415591,-093.140,+086.354,-115.435,-00.2230,+00.2055,-00.5843,+09.822,+00.554,+00.251,+00.000483,+00.004518,+00.000404,"$VNYMR,-093.140,+086.354,-115.435,-00.2230,+00.2055,-00.5843,+09.822,+00.554,+00.251,+00.000483,+00.004518,+00.000404*65
"
1712236742.6667109,-093.224,+086.352,-115.523,-00.2239,+00.2138,-00.5858,+09.806,+00.554,+00.287,-00.000452,+00.004271,+00.001215,"$VNYMR,-093.224,+086.352,-115.523,-00.2239,+00.2138,-00.5858,+09.806,+00.554,+00.287,-00.000452,+00.004271,+00.001215*65
"
1712236742.6929073,-093.278,+086.350,-115.580,-00.2284,+00.2103,-00.5726,+09.800,+00.564,+00.278,+00.000230,+00.001685,-00.000086,"$VNYMR,-093.278,+086.350,-115.580,-00.2284,+00.2103,-00.5726,+09.800,+00.564,+00.278,+00.000230,+00.001685,-00.000086*6B
"
1712236742.7161684,-093.332,+086.348,-115.632,-00.2239,+00.2126,-00.5857,+09.789,+00.562,+00.269,+00.000217,+00.000572,-00.000818,"$VNYMR,-093.332,+086.348,-115.632,-00.2239,+00.2126,-00.5857,+09.789,+00.562,+00.269,+00.000217,+00.000572,-00.000818*67
"
1712236742.7409456,-093.345,+086.346,-115.648,-00.2253,+00.2008,-00.5763,+09.803,+00.574,+00.243,-00.000105,+00.002051,-00.000027,"$VNYMR,-093.345,+086.346,-115.648,-00.2253,+00.2008,-00.5763,+09.803,+00.574,+00.243,-00.000105,+00.002051,-00.000027*6B
"
1712236742.7683609,-093.396,+086.345,-115.696,-00.2272,+00.2162,-00.5886,+09.797,+00.563,+00.249,-00.000165,+00.000233,-00.000016,"$VNYMR,-093.396,+086.345,-115.696,-00.2272,+00.2162,-00.5886,+09.797,+00.563,+00.249,-00.000165,+00.000233,-00.000016*61
"
1712236742.7938645,-093.408,+086.345,-115.708,-00.2230,+00.2055,-00.5816,+09.795,+00.558,+00.248,-00.001193,+00.000649,+00.000038,"$VNYMR,-093.408,+086.345,-115.708,-00.2230,+00.2055,-00.5816,+09.795,+00.558,+00.248,-00.001193,+00.000649,+00.000038*6D
"
1712236742.8161924,-093.461,+086.344,-115.764,-00.2273,+00.2126,-00.5846,+09.784,+00.560,+00.242,-00.000314,+00.000184,+00.000156,"$VNYMR,-093.461,+086.344,-115.764,-00.2273,+00.2126,-00.5846,+09.784,+00.560,+00.242,-00.000314,+00.000184,+00.000156*6C
"
1712236742.8427052,-093.458,+086.345,-115.762,-00.2297,+00.2009,-00.5752,+09.821,+00.556,+00.253,-00.000168,+00.002377,-00.000404,"$VNYMR,-093.458,+086.345,-115.762,-00.2297,+00.2009,-00.5752,+09.821,+00.556,+00.253,-00.000168,+00.002377,-00.000404*69
"
1712236742.8660576,-093.498,+086.344,-115.803,-00.2264,+00.1996,-00.5871,+09.789,+00.575,+00.251,+00.000598,+00.002396,-00.000330,"$VNYMR,-093.498,+086.344,-115.803,-00.2264,+00.1996,-00.5871,+09.789,+00.575,+00.251,+00.000598,+00.002396,-00.000330*6E
"
1712236742.893108,-093.516,+086.344,-115.823,-00.2275,+00.2008,-00.5804,+09.779,+00.561,+00.267,+00.000265,+00.002545,-00.000092,"$VNYMR,-093.516,+086.344,-115.823,-00.2275,+00.2008,-00.5804,+09.779,+00.561,+00.267,+00.000265,+00.002545,-00.000092*6D
"
1712236742.9161706,-093.515,+086.343,-115.824,-00.2296,+00.2080,-00.5766,+09.784,+00.579,+00.277,-00.000357,+00.001974,-00.000713,"$VNYMR,-093.515,+086.343,-115.824,-00.2296,+00.2080,-00.5766,+09.784,+00.579,+00.277,-00.000357,+00.001974,-00.000713*67
"
1712236742.944422,-093.535,+086.341,-115.848,-00.2251,+00.2091,-00.5858,+09.799,+00.563,+00.283,+00.000463,+00.002173,-00.000585,"$VNYMR,-093.535,+086.341,-115.848,-00.2251,+00.2091,-00.5858,+09.799,+00.563,+00.283,+00.000463,+00.002173,-00.000585*6F
"
1712236742.9660482,-093.565,+086.339,-115.877,-00.2275,+00.2020,-00.5858,+09.785,+00.579,+00.306,-00.000639,+00.002411,-00.001044,"$VNYMR,-093.565,+086.339,-115.877,-00.2275,+00.2020,-00.5858,+09.785,+00.579,+00.306,-00.000639,+00.002411,-00.001044*6C
"
1712236742.9914262,-093.558,+086.338,-115.870,-00.2298,+00.1985,-00.5712,+09.803,+00.568,+00.261,-00.001001,-00.000595,-00.000566,"$VNYMR,-093.558,+086.338,-115.870,-00.2298,+00.1985,-00.5712,+09.803,+00.568,+00.261,-00.001001,-00.000595,-00.000566*63
"
1712236743.0164337,-093.548,+086.338,-115.860,-00.2276,+00.1973,-00.5844,+09.778,+00.575,+00.296,-00.000380,+00.000420,+00.000968,"$VNYMR,-093.548,+086.338,-115.860,-00.2276,+00.1973,-00.5844,+09.778,+00.575,+00.296,-00.000380,+00.000420,+00.000968*67
"
1712236743.0427759,-093.492,+086.338,-115.800,-00.2286,+00.2020,-00.5779,+09.783,+00.567,+00.259,+00.000098,-00.001322,-00.000299,"$VNYMR,-093.492,+086.338,-115.800,-00.2286,+00.2020,-00.5779,+09.783,+00.567,+00.259,+00.000098,-00.001322,-00.000299*6C
"
1712236743.0660326,-093.456,+086.339,-115.765,-00.2294,+00.2174,-00.5794,+09.807,+00.560,+00.233,+00.000324,-00.000744,-00.001202,"$VNYMR,-093.456,+086.339,-115.765,-00.2294,+00.2174,-00.5794,+09.807,+00.560,+00.233,+00.000324,-00.000744,-00.001202*63
"
1712236743.0911803,-093.445,+086.338,-115.754,-00.2251,+00.2091,-00.5844,+09.804,+00.547,+00.261,+00.000208,-00.001345,-00.000207,"$VNYMR,-093.445,+086.338,-115.754,-00.2251,+00.2091,-00.5844,+09.804,+00.547,+00.261,+00.000208,-00.001345,-00.000207*6D
"
1712236743.1188824,-093.374,+086.340,-115.679,-00.2274,+00.2044,-00.5858,+09.789,+00.544,+00.241,+00.000017,+00.000212,-00.000642,"$VNYMR,-093.374,+086.340,-115.679,-00.2274,+00.2044,-00.5858,+09.789,+00.544,+00.241,+00.000017,+00.000212,-00.000642*6D
"
1712236743.1411772,-093.331,+086.341,-115.637,-00.2296,+00.2091,-00.5726,+09.790,+00.575,+00.227,-00.000362,-00.001828,-00.001260,"$VNYMR,-093.331,+086.341,-115.637,-00.2296,+00.2091,-00.5726,+09.790,+00.575,+00.227,-00.000362,-00.001828,-00.001260*69
"
1712236743.166047,-093.313,+086.340,-115.619,-00.2265,+00.1961,-00.5857,+09.778,+00.553,+00.221,+00.000244,+00.000495,-00.001453,"$VNYMR,-093.313,+086.340,-115.619,-00.2265,+00.1961,-00.5857,+09.778,+00.553,+00.221,+00.000244,+00.000495,-00.001453*68
"
1712236743.193492,-093.303,+086.339,-115.605,-00.2264,+00.1984,-00.5764,+09.806,+00.570,+00.279,-00.000273,-00.000374,-00.000933,"$VNYMR,-093.303,+086.339,-115.605,-00.2264,+00.1984,-00.5764,+09.806,+00.570,+00.279,-00.000273,-00.000374,-00.000933*63
"
1712236743.2157738,-093.283,+086.338,-115.585,-00.2306,+00.2103,-00.5821,+09.814,+00.565,+00.276,+00.000280,+00.001096,-00.000923,"$VNYMR,-093.283,+086.338,-115.585,-00.2306,+00.2103,-00.5821,+09.814,+00.565,+00.276,+00.000280,+00.001096,-00.000923*64
"
1712236743.2432659,-093.285,+086.336,-115.591,-00.2284,+00.2115,-00.5833,+09.795,+00.555,+00.285,-00.001461,-00.000418,-00.001094,"$VNYMR,-093.285,+086.336,-115.591,-00.2284,+00.2115,-00.5833,+09.795,+00.555,+00.285,-00.001461,-00.000418,-00.001094*60
"
1712236743.2659378,-093.268,+086.335,-115.571,-00.2253,+00.1996,-00.5870,+09.785,+00.563,+00.258,-00.000117,-00.001120,-00.001198,"$VNYMR,-093.268,+086.335,-115.571,-00.2253,+00.1996,-00.5870,+09.785,+00.563,+00.258,-00.000117,-00.001120,-00.001198*60
"
1712236743.2911594,-093.161,+086.338,-115.463,-00.2286,+00.1997,-00.5765,+09.768,+00.562,+00.276,+00.000416,-00.004566,-00.000374,"$VNYMR,-093.161,+086.338,-115.463,-00.2286,+00.1997,-00.5765,+09.768,+00.562,+00.276,+00.000416,-00.004566,-00.000374*69
"
1712236743.315822,-093.077,+086.338,-115.379,-00.2309,+00.1985,-00.5846,+09.790,+00.575,+00.294,+00.000641,-00.004624,-00.000650,"$VNYMR,-093.077,+086.338,-115.379,-00.2309,+00.1985,-00.5846,+09.790,+00.575,+00.294,+00.000641,-00.004624,-00.000650*63
"
1712236743.3408465,-093.025,+086.339,-115.329,-00.2275,+00.1996,-00.5764,+09.772,+00.539,+00.268,+00.000365,-00.003355,-00.000291,"$VNYMR,-093.025,+086.339,-115.329,-00.2275,+00.1996,-00.5764,+09.772,+00.539,+00.268,+00.000365,-00.003355,-00.000291*6E
"
1712236743.368243,-092.937,+086.340,-115.242,-00.2296,+00.2056,-00.5793,+09.810,+00.577,+00.246,+00.000733,-00.003303,-00.000856,"$VNYMR,-092.937,+086.340,-115.242,-00.2296,+00.2056,-00.5793,+09.810,+00.577,+00.246,+00.000733,-00.003303,-00.000856*6C
"
1712236743.393653,-092.868,+086.342,-115.173,-00.2240,+00.2102,-00.5857,+09.801,+00.577,+00.229,-00.000242,-00.003548,-00.000795,"$VNYMR,-092.868,+086.342,-115.173,-00.2240,+00.2102,-00.5857,+09.801,+00.577,+00.229,-00.000242,-00.003548,-00.000795*6D
"
1712236743.4158375,-092.799,+086.342,-115.101,-00.2253,+00.2008,-00.5857,+09.777,+00.560,+00.246,-00.000004,-00.004121,-00.001790,"$VNYMR,-092.799,+086.342,-115.101,-00.2253,+00.2008,-00.5857,+09.777,+00.560,+00.246,-00.000004,-00.004121,-00.001790*69
"
1712236743.4424791,-092.698,+086.343,-115.001,-00.2295,+00.2103,-00.5727,+09.794,+00.572,+00.250,+00.000970,-00.002262,-00.001337,"$VNYMR,-092.698,+086.343,-115.001,-00.2295,+00.2103,-00.5727,+09.794,+00.572,+00.250,+00.000970,-00.002262,-00.001337*6F
"
1712236743.4675512,-092.627,+086.343,-114.924,-00.2284,+00.2103,-00.5873,+09.797,+00.546,+00.244,+00.000350,-00.002286,-00.001298,"$VNYMR,-092.627,+086.343,-114.924,-00.2284,+00.2103,-00.5873,+09.797,+00.546,+00.244,+00.000350,-00.002286,-00.001298*6D
"
1712236743.4906073,-092.573,+086.343,-114.872,-00.2275,+00.1985,-00.5751,+09.806,+00.563,+00.279,-00.000788,-00.001757,-00.001464,"$VNYMR,-092.573,+086.343,-114.872,-00.2275,+00.1985,-00.5751,+09.806,+00.563,+00.279,-00.000788,-00.001757,-00.001464*6F
"
1712236743.5154247,-092.497,+086.344,-114.793,-00.2285,+00.2079,-00.5792,+09.821,+00.559,+00.261,-00.000707,-00.001872,-00.000445,"$VNYMR,-092.497,+086.344,-114.793,-00.2285,+00.2079,-00.5792,+09.821,+00.559,+00.261,-00.000707,-00.001872,-00.000445*62
"
1712236743.5414848,-092.440,+086.344,-114.736,-00.2262,+00.2103,-00.5858,+09.812,+00.573,+00.266,+00.000734,-00.002782,-00.001008,"$VNYMR,-092.440,+086.344,-114.736,-00.2262,+00.2103,-00.5858,+09.812,+00.573,+00.266,+00.000734,-00.002782,-00.001008*6D
"
1712236743.569876,-092.378,+086.345,-114.674,-00.2273,+00.2115,-00.5846,+09.799,+00.555,+00.283,-00.000233,-00.002323,+00.000039,"$VNYMR,-092.378,+086.345,-114.674,-00.2273,+00.2115,-00.5846,+09.799,+00.555,+00.283,-00.000233,-00.002323,+00.000039*62
"
1712236743.5931923,-092.293,+086.345,-114.590,-00.2275,+00.2020,-00.5751,+09.776,+00.562,+00.245,+00.001111,-00.004916,-00.000968,"$VNYMR,-092.293,+086.345,-114.590,-00.2275,+00.2020,-00.5751,+09.776,+00.562,+00.245,+00.001111,-00.004916,-00.000968*6D
"
1712236743.618681,-092.210,+086.348,-114.505,-00.2265,+00.1949,-00.5883,+09.782,+00.560,+00.257,+00.000649,-00.004816,-00.000599,"$VNYMR,-092.210,+086.348,-114.505,-00.2265,+00.1949,-00.5883,+09.782,+00.560,+00.257,+00.000649,-00.004816,-00.000599*61
"
1712236743.6407137,-092.108,+086.350,-114.399,-00.2275,+00.1996,-00.5738,+09.803,+00.582,+00.255,+00.000513,-00.004695,-00.000051,"$VNYMR,-092.108,+086.350,-114.399,-00.2275,+00.1996,-00.5738,+09.803,+00.582,+00.255,+00.000513,-00.004695,-00.000051*6D
"
1712236743.6658418,-091.999,+086.352,-114.288,-00.2285,+00.2079,-00.5766,+09.795,+00.567,+00.242,+00.001004,-00.003568,-00.001205,"$VNYMR,-091.999,+086.352,-114.288,-00.2285,+00.2079,-00.5766,+09.795,+00.567,+00.242,+00.001004,-00.003568,-00.001205*69
"
1712236743.6933131,-091.938,+086.354,-114.228,-00.2296,+00.2068,-00.5860,+09.777,+00.569,+00.242,+00.000873,-00.004904,-00.000743,"$VNYMR,-091.938,+086.354,-114.228,-00.2296,+00.2068,-00.5860,+09.777,+00.569,+00.242,+00.000873,-00.004904,-00.000743*69
"
1712236743.71587,-091.851,+086.357,-114.140,-00.2275,+00.2008,-00.5845,+09.784,+00.570,+00.223,-00.000169,-00.003296,-00.000620,"$VNYMR,-091.851,+086.357,-114.140,-00.2275,+00.2008,-00.5845,+09.784,+00.570,+00.223,-00.000169,-00.003296,-00.000620*61
"
1712236743.7406855,-091.773,+086.358,-114.064,-00.2264,+00.1996,-00.5764,+09.800,+00.562,+00.243,-00.000791,-00.003526,-00.001660,"$VNYMR,-091.773,+086.358,-114.064,-00.2264,+00.1996,-00.5764,+09.800,+00.562,+00.243,-00.000791,-00.003526,-00.001660*69
"
1712236743.767007,-091.716,+086.359,-114.007,-00.2287,+00.1985,-00.5912,+09.824,+00.556,+00.267,+00.000038,-00.002112,+00.000389,"$VNYMR,-091.716,+086.359,-114.007,-00.2287,+00.1985,-00.5912,+09.824,+00.556,+00.267,+00.000038,-00.002112,+00.000389*6C
"
1712236743.790571,-091.686,+086.360,-113.978,-00.2285,+00.2044,-00.5805,+09.755,+00.542,+00.273,+00.000200,-00.000683,-00.000203,"$VNYMR,-091.686,+086.360,-113.978,-00.2285,+00.2044,-00.5805,+09.755,+00.542,+00.273,+00.000200,-00.000683,-00.000203*62
"
1712236743.8208187,-091.630,+086.361,-113.921,-00.2295,+00.2103,-00.5793,+09.803,+00.546,+00.262,-00.000120,-00.000886,+00.000196,"$VNYMR,-091.630,+086.361,-113.921,-00.2295,+00.2103,-00.5793,+09.803,+00.546,+00.262,-00.000120,-00.000886,+00.000196*6C
"
1712236743.8433619,-091.606,+086.361,-113.897,-00.2285,+00.2056,-00.5846,+09.788,+00.560,+00.249,+00.000358,-00.002324,-00.001177,"$VNYMR,-091.606,+086.361,-113.897,-00.2285,+00.2056,-00.5846,+09.788,+00.560,+00.249,+00.000358,-00.002324,-00.001177*61
"
1712236743.8654664,-091.527,+086.363,-113.820,-00.2285,+00.2079,-00.5899,+09.822,+00.564,+00.256,+00.000123,-00.003229,-00.000207,"$VNYMR,-091.527,+086.363,-113.820,-00.2285,+00.2079,-00.5899,+09.822,+00.564,+00.256,+00.000123,-00.003229,-00.000207*63
"
1712236743.8930268,-091.410,+086.367,-113.701,-00.2308,+00.2021,-00.5740,+09.772,+00.567,+00.255,+00.000925,-00.003510,-00.000309,"$VNYMR,-091.410,+086.367,-113.701,-00.2308,+00.2021,-00.5740,+09.772,+00.567,+00.255,+00.000925,-00.003510,-00.000309*6A
"
1712236743.9183135,-091.342,+086.369,-113.634,-00.2296,+00.2080,-00.5806,+09.813,+00.552,+00.264,+00.001177,-00.002883,+00.001111,"$VNYMR,-091.342,+086.369,-113.634,-00.2296,+00.2080,-00.5806,+09.813,+00.552,+00.264,+00.001177,-00.002883,+00.001111*6B
"
1712236743.9417138,-091.269,+086.372,-113.559,-00.2285,+00.2044,-00.5779,+09.770,+00.586,+00.278,-00.000020,-00.004498,+00.000776,"$VNYMR,-091.269,+086.372,-113.559,-00.2285,+00.2044,-00.5779,+09.770,+00.586,+00.278,-00.000020,-00.004498,+00.000776*60
"
1712236743.9655511,-091.248,+086.373,-113.539,-00.2263,+00.2067,-00.5778,+09.802,+00.564,+00.251,-00.001453,-00.003581,+00.000058,"$VNYMR,-091.248,+086.373,-113.539,-00.2263,+00.2067,-00.5778,+09.802,+00.564,+00.251,-00.001453,-00.003581,+00.000058*65
"
1712236743.9930098,-091.211,+086.374,-113.499,-00.2274,+00.2056,-00.5832,+09.747,+00.562,+00.281,+00.000189,-00.002716,+00.000484,"$VNYMR,-091.211,+086.374,-113.499,-00.2274,+00.2056,-00.5832,+09.747,+00.562,+00.281,+00.000189,-00.002716,+00.000484*68
"
1712236744.0155914,-091.181,+086.375,-113.470,-00.2275,+00.2020,-00.5845,+09.793,+00.546,+00.267,-00.000658,-00.002237,-00.000748,"$VNYMR,-091.181,+086.375,-113.470,-00.2275,+00.2020,-00.5845,+09.793,+00.546,+00.267,-00.000658,-00.002237,-00.000748*6D
"
1712236744.040678,-091.171,+086.376,-113.458,-00.2298,+00.1973,-00.5712,+09.741,+00.594,+00.275,+00.000858,-00.002668,+00.000394,"$VNYMR,-091.171,+086.376,-113.458,-00.2298,+00.1973,-00.5712,+09.741,+00.594,+00.275,+00.000858,-00.002668,+00.000394*6F
"
1712236744.0656466,-091.203,+086.376,-113.490,-00.2286,+00.2009,-00.5872,+09.794,+00.555,+00.259,-00.001368,-00.001381,+00.001727,"$VNYMR,-091.203,+086.376,-113.490,-00.2286,+00.2009,-00.5872,+09.794,+00.555,+00.259,-00.001368,-00.001381,+00.001727*64
"
1712236744.0926564,-091.207,+086.377,-113.491,-00.2308,+00.2009,-00.5739,+09.781,+00.573,+00.261,+00.000107,+00.000474,+00.000719,"$VNYMR,-091.207,+086.377,-113.491,-00.2308,+00.2009,-00.5739,+09.781,+00.573,+00.261,+00.000107,+00.000474,+00.000719*66
"
1712236744.1155307,-091.240,+086.377,-113.528,-00.2318,+00.2092,-00.5781,+09.797,+00.550,+00.271,-00.001218,-00.000376,+00.000486,"$VNYMR,-091.240,+086.377,-113.528,-00.2318,+00.2092,-00.5781,+09.797,+00.550,+00.271,-00.001218,-00.000376,+00.000486*6D
"
1712236744.1405253,-091.246,+086.379,-113.534,-00.2262,+00.2079,-00.5818,+09.771,+00.572,+00.251,-00.000983,-00.002320,+00.001908,"$VNYMR,-091.246,+086.379,-113.534,-00.2262,+00.2079,-00.5818,+09.771,+00.572,+00.251,-00.000983,-00.002320,+00.001908*67
"
1712236744.1654944,-091.269,+086.378,-113.556,-00.2264,+00.2020,-00.5871,+09.787,+00.563,+00.265,-00.000477,-00.001298,+00.000329,"$VNYMR,-091.269,+086.378,-113.556,-00.2264,+00.2020,-00.5871,+09.787,+00.563,+00.265,-00.000477,-00.001298,+00.000329*6B
"
1712236744.190343,-091.237,+086.380,-113.524,-00.2287,+00.1973,-00.5725,+09.805,+00.571,+00.242,+00.000443,-00.002457,-00.000542,"$VNYMR,-091.237,+086.380,-113.524,-00.2287,+00.1973,-00.5725,+09.805,+00.571,+00.242,+00.000443,-00.002457,-00.000542*64
"
1712236744.215723,-091.248,+086.380,-113.536,-00.2287,+00.1973,-00.5925,+09.804,+00.585,+00.269,+00.000070,-00.001590,+00.000794,"$VNYMR,-091.248,+086.380,-113.536,-00.2287,+00.1973,-00.5925,+09.804,+00.585,+00.269,+00.000070,-00.001590,+00.000794*60
"
1712236744.2406797,-091.230,+086.382,-113.518,-00.2298,+00.1985,-00.5765,+09.799,+00.578,+00.260,+00.001002,-00.000784,+00.000131,"$VNYMR,-091.230,+086.382,-113.518,-00.2298,+00.1985,-00.5765,+09.799,+00.578,+00.260,+00.001002,-00.000784,+00.000131*67
"
1712236744.2675579,-091.236,+086.385,-113.522,-00.2306,+00.2103,-00.5821,+09.782,+00.546,+00.246,+00.000017,+00.000292,+00.001044,"$VNYMR,-091.236,+086.385,-113.522,-00.2306,+00.2103,-00.5821,+09.782,+00.546,+00.246,+00.000017,+00.000292,+00.001044*63
"
1712236744.2929626,-091.266,+086.385,-113.550,-00.2272,+00.2162,-00.5833,+09.800,+00.567,+00.256,+00.000761,+00.000158,+00.000744,"$VNYMR,-091.266,+086.385,-113.550,-00.2272,+00.2162,-00.5833,+09.800,+00.567,+00.256,+00.000761,+00.000158,+00.000744*67
"
1712236744.3155491,-091.285,+086.386,-113.572,-00.2251,+00.2114,-00.5818,+09.751,+00.550,+00.242,-00.000108,+00.001609,+00.000588,"$VNYMR,-091.285,+086.386,-113.572,-00.2251,+00.2114,-00.5818,+09.751,+00.550,+00.242,-00.000108,+00.001609,+00.000588*65
"
1712236744.3407753,-091.329,+086.386,-113.618,-00.2330,+00.2009,-00.5701,+09.799,+00.568,+00.270,-00.000359,-00.000215,-00.000266,"$VNYMR,-091.329,+086.386,-113.618,-00.2330,+00.2009,-00.5701,+09.799,+00.568,+00.270,-00.000359,-00.000215,-00.000266*66
"
1712236744.3651845,-091.405,+086.385,-113.696,-00.2275,+00.2008,-00.5818,+09.784,+00.579,+00.266,-00.001655,+00.001869,+00.001280,"$VNYMR,-091.405,+086.385,-113.696,-00.2275,+00.2008,-00.5818,+09.784,+00.579,+00.266,-00.001655,+00.001869,+00.001280*66
"
1712236744.3904376,-091.487,+086.382,-113.782,-00.2329,+00.2092,-00.5835,+09.786,+00.557,+00.267,-00.000673,+00.002553,+00.000869,"$VNYMR,-091.487,+086.382,-113.782,-00.2329,+00.2092,-00.5835,+09.786,+00.557,+00.267,-00.000673,+00.002553,+00.000869*6A
"
1712236744.4156733,-091.523,+086.383,-113.820,-00.2273,+00.2115,-00.5779,+09.790,+00.566,+00.267,+00.000515,+00.002021,+00.000937,"$VNYMR,-091.523,+086.383,-113.820,-00.2273,+00.2115,-00.5779,+09.790,+00.566,+00.267,+00.000515,+00.002021,+00.000937*6E
"
1712236744.4401553,-091.572,+086.383,-113.868,-00.2274,+00.2067,-00.5859,+09.818,+00.576,+00.235,-00.000300,+00.002473,+00.001294,"$VNYMR,-091.572,+086.383,-113.868,-00.2274,+00.2067,-00.5859,+09.818,+00.576,+00.235,-00.000300,+00.002473,+00.001294*65
"
1712236744.4678853,-091.599,+086.385,-113.892,-00.2275,+00.2020,-00.5831,+09.786,+00.561,+00.306,+00.001026,+00.000261,+00.002182,"$VNYMR,-091.599,+086.385,-113.892,-00.2275,+00.2020,-00.5831,+09.786,+00.561,+00.306,+00.001026,+00.000261,+00.002182*60
"
1712236744.4901357,-091.692,+086.383,-113.986,-00.2320,+00.1997,-00.5753,+09.765,+00.572,+00.292,+00.000411,+00.000744,+00.001357,"$VNYMR,-091.692,+086.383,-113.986,-00.2320,+00.1997,-00.5753,+09.765,+00.572,+00.292,+00.000411,+00.000744,+00.001357*6F
"
1712236744.5152476,-091.753,+086.383,-114.045,-00.2275,+00.1985,-00.5871,+09.805,+00.576,+00.240,+00.000092,+00.000597,+00.000957,"$VNYMR,-091.753,+086.383,-114.045,-00.2275,+00.1985,-00.5871,+09.805,+00.576,+00.240,+00.000092,+00.000597,+00.000957*65
"
1712236744.540265,-091.798,+086.385,-114.092,-00.2297,+00.2021,-00.5766,+09.774,+00.555,+00.279,+00.000739,+00.002196,+00.001238,"$VNYMR,-091.798,+086.385,-114.092,-00.2297,+00.2021,-00.5766,+09.774,+00.555,+00.279,+00.000739,+00.002196,+00.001238*6F
"
1712236744.5680068,-091.836,+086.385,-114.131,-00.2284,+00.2115,-00.5820,+09.807,+00.570,+00.224,+00.000035,+00.002685,+00.001714,"$VNYMR,-091.836,+086.385,-114.131,-00.2284,+00.2115,-00.5820,+09.807,+00.570,+00.224,+00.000035,+00.002685,+00.001714*64
"
1712236744.5925832,-091.903,+086.385,-114.196,-00.2284,+00.2091,-00.5859,+09.785,+00.552,+00.294,-00.000225,+00.004242,+00.000445,"$VNYMR,-091.903,+086.385,-114.196,-00.2284,+00.2091,-00.5859,+09.785,+00.552,+00.294,-00.000225,+00.004242,+00.000445*69
"
1712236744.6154602,-092.002,+086.384,-114.296,-00.2284,+00.2091,-00.5899,+09.799,+00.565,+00.253,-00.000715,+00.003221,+00.001220,"$VNYMR,-092.002,+086.384,-114.296,-00.2284,+00.2091,-00.5899,+09.799,+00.565,+00.253,-00.000715,+00.003221,+00.001220*6E
"
1712236744.643086,-092.115,+086.380,-114.409,-00.2297,+00.2009,-00.5726,+09.763,+00.558,+00.273,-00.000650,+00.004927,+00.000767,"$VNYMR,-092.115,+086.380,-114.409,-00.2297,+00.2009,-00.5726,+09.763,+00.558,+00.273,-00.000650,+00.004927,+00.000767*61
"
1712236744.6650856,-092.206,+086.379,-114.498,-00.2264,+00.1984,-00.5884,+09.787,+00.568,+00.293,+00.000211,+00.003444,+00.000574,"$VNYMR,-092.206,+086.379,-114.498,-00.2264,+00.1984,-00.5884,+09.787,+00.568,+00.293,+00.000211,+00.003444,+00.000574*65
"
1712236744.6904209,-092.334,+086.376,-114.623,-00.2308,+00.1997,-00.5739,+09.786,+00.552,+00.260,+00.000250,+00.003955,+00.000481,"$VNYMR,-092.334,+086.376,-114.623,-00.2308,+00.1997,-00.5739,+09.786,+00.552,+00.260,+00.000250,+00.003955,+00.000481*6F
"
1712236744.7157338,-092.454,+086.374,-114.742,-00.2295,+00.2127,-00.5834,+09.798,+00.550,+00.252,+00.000965,+00.003016,+00.001143,"$VNYMR,-092.454,+086.374,-114.742,-00.2295,+00.2127,-00.5834,+09.798,+00.550,+00.252,+00.000965,+00.003016,+00.001143*68
"
1712236744.7404504,-092.511,+086.374,-114.801,-00.2251,+00.2102,-00.5831,+09.803,+00.564,+00.232,+00.000289,+00.002189,+00.000283,"$VNYMR,-092.511,+086.374,-114.801,-00.2251,+00.2102,-00.5831,+09.803,+00.564,+00.232,+00.000289,+00.002189,+00.000283*67
"
1712236744.765003,-092.574,+086.372,-114.862,-00.2264,+00.2020,-00.5871,+09.777,+00.571,+00.291,-00.000884,+00.001962,-00.000676,"$VNYMR,-092.574,+086.372,-114.862,-00.2264,+00.2020,-00.5871,+09.777,+00.571,+00.291,-00.000884,+00.001962,-00.000676*62
"
1712236744.7927313,-092.616,+086.372,-114.904,-00.2309,+00.1985,-00.5726,+09.800,+00.543,+00.253,+00.000396,+00.001521,+00.000298,"$VNYMR,-092.616,+086.372,-114.904,-00.2309,+00.1985,-00.5726,+09.800,+00.543,+00.253,+00.000396,+00.001521,+00.000298*61
"
