Timestamp,Yaw,Pitch,Roll,Angular Velocity X,Angular Velocity Y,Angular Velocity Z,Linear Acceleration X,Linear Acceleration Y,Linear Acceleration Z,Magnetic Field X,Magnetic Field Y,Magnetic Field Z,Original String
1712236681.3727365,-089.132,+086.252,-112.092,-00.2308,+00.2009,-00.5673,+09.795,+00.565,+00.284,+00.000920,+00.001465,-00.001820,"$VNYMR,-089.132,+086.252,-112.092,-00.2308,+00.2009,-00.5673,+09.795,+00.565,+00.284,+00.000920,+00.001465,-00.001820*62
"
1712236681.395549,-089.177,+086.249,-112.137,-00.2276,+00.1949,-00.5831,+09.798,+00.578,+00.268,+00.000062,+00.001332,-00.000709,"$VNYMR,-089.177,+086.249,-112.137,-00.2276,+00.1949,-00.5831,+09.798,+00.578,+00.268,+00.000062,+00.001332,-00.000709*65
"
1712236681.4207644,-089.207,+086.248,-112.164,-00.2319,+00.2009,-00.5740,+09.786,+00.553,+00.275,+00.000316,+00.001953,-00.000993,"$VNYMR,-089.207,+086.248,-112.164,-00.2319,+00.2009,-00.5740,+09.786,+00.553,+00.275,+00.000316,+00.001953,-00.000993*63
"
1712236681.4474666,-089.299,+086.246,-112.255,-00.2351,+00.2081,-00.5729,+09.755,+00.565,+00.298,+00.000978,+00.003315,-00.001106,"$VNYMR,-089.299,+086.246,-112.255,-00.2351,+00.2081,-00.5729,+09.755,+00.565,+00.298,+00.000978,+00.003315,-00.001106*6D
"
1712236681.4710045,-089.377,+086.245,-112.334,-00.2285,+00.2079,-00.5873,+09.776,+00.548,+00.248,+00.000806,+00.005122,+00.000276,"$VNYMR,-089.377,+086.245,-112.334,-00.2285,+00.2079,-00.5873,+09.776,+00.548,+00.248,+00.000806,+00.005122,+00.000276*6E
"
1712236681.4964497,-089.499,+086.245,-112.454,-00.2308,+00.2033,-00.5820,+09.807,+00.575,+00.257,+00.000618,+00.006223,+00.001649,"$VNYMR,-089.499,+086.245,-112.454,-00.2308,+00.2033,-00.5820,+09.807,+00.575,+00.257,+00.000618,+00.006223,+00.001649*64
"
1712236681.5206928,-089.637,+086.243,-112.593,-00.2318,+00.2080,-00.5727,+09.783,+00.575,+00.278,+00.000545,+00.006760,+00.001532,"$VNYMR,-089.637,+086.243,-112.593,-00.2318,+00.2080,-00.5727,+09.783,+00.575,+00.278,+00.000545,+00.006760,+00.001532*67
"
1712236681.5467741,-089.803,+086.243,-112.760,-00.2320,+00.1974,-00.5886,+09.786,+00.563,+00.288,+00.001159,+00.007633,+00.002743,"$VNYMR,-089.803,+086.243,-112.760,-00.2320,+00.1974,-00.5886,+09.786,+00.563,+00.288,+00.001159,+00.007633,+00.002743*6A
"
1712236681.5704648,-090.011,+086.243,-112.963,-00.2341,+00.2033,-00.5741,+09.804,+00.581,+00.289,+00.000232,+00.006433,+00.003033,"$VNYMR,-090.011,+086.243,-112.963,-00.2341,+00.2033,-00.5741,+09.804,+00.581,+00.289,+00.000232,+00.006433,+00.003033*6B
"
1712236681.5964541,-090.202,+086.243,-113.152,-00.2306,+00.2115,-00.5781,+09.773,+00.580,+00.279,+00.001009,+00.007232,+00.002833,"$VNYMR,-090.202,+086.243,-113.152,-00.2306,+00.2115,-00.5781,+09.773,+00.580,+00.279,+00.001009,+00.007232,+00.002833*6F
"
1712236681.6214764,-090.406,+086.244,-113.353,-00.2307,+00.2056,-00.5833,+09.810,+00.570,+00.286,+00.001378,+00.006662,+00.002728,"$VNYMR,-090.406,+086.244,-113.353,-00.2307,+00.2056,-00.5833,+09.810,+00.570,+00.286,+00.001378,+00.006662,+00.002728*6D
"
1712236681.6458554,-090.635,+086.245,-113.584,-00.2296,+00.2056,-00.5846,+09.791,+00.551,+00.243,+00.001431,+00.008608,+00.004765,"$VNYMR,-090.635,+086.245,-113.584,-00.2296,+00.2056,-00.5846,+09.791,+00.551,+00.243,+00.001431,+00.008608,+00.004765*62
"
1712236681.6731749,-090.833,+086.250,-113.778,-00.2319,+00.2045,-00.5687,+09.793,+00.566,+00.294,+00.000711,+00.007330,+00.005683,"$VNYMR,-090.833,+086.250,-113.778,-00.2319,+00.2045,-00.5687,+09.793,+00.566,+00.294,+00.000711,+00.007330,+00.005683*6D
"
1712236681.707397,-091.083,+086.253,-114.024,-00.2330,+00.2009,-00.5781,+09.795,+00.572,+00.244,+00.001087,+00.007262,+00.006481,"$VNYMR,-091.083,+086.253,-114.024,-00.2330,+00.2009,-00.5781,+09.795,+00.572,+00.244,+00.001087,+00.007262,+00.006481*63
"
1712236681.7204018,-091.312,+086.258,-114.250,-00.2320,+00.1985,-00.5753,+09.746,+00.581,+00.262,+00.000046,+00.009637,+00.006933,"$VNYMR,-091.312,+086.258,-114.250,-00.2320,+00.1985,-00.5753,+09.746,+00.581,+00.262,+00.000046,+00.009637,+00.006933*66
"
1712236681.7466025,-091.587,+086.262,-114.522,-00.2305,+00.2186,-00.5821,+09.826,+00.569,+00.259,+00.000111,+00.009252,+00.006925,"$VNYMR,-091.587,+086.262,-114.522,-00.2305,+00.2186,-00.5821,+09.826,+00.569,+00.259,+00.000111,+00.009252,+00.006925*66
"
1712236681.7712955,-091.853,+086.265,-114.787,-00.2307,+00.2080,-00.5820,+09.772,+00.557,+00.268,+00.000721,+00.010979,+00.007075,"$VNYMR,-091.853,+086.265,-114.787,-00.2307,+00.2080,-00.5820,+09.772,+00.557,+00.268,+00.000721,+00.010979,+00.007075*6F
"
1712236681.796167,-092.159,+086.269,-115.088,-00.2275,+00.2008,-00.5764,+09.765,+00.568,+00.318,+00.001127,+00.009681,+00.008736,"$VNYMR,-092.159,+086.269,-115.088,-00.2275,+00.2008,-00.5764,+09.765,+00.568,+00.318,+00.001127,+00.009681,+00.008736*63
"
1712236681.820322,-092.470,+086.273,-115.400,-00.2331,+00.1974,-00.5754,+09.785,+00.578,+00.287,+00.000492,+00.012857,+00.007078,"$VNYMR,-092.470,+086.273,-115.400,-00.2331,+00.1974,-00.5754,+09.785,+00.578,+00.287,+00.000492,+00.012857,+00.007078*6E
"
1712236681.8486817,-092.751,+086.277,-115.680,-00.2297,+00.2021,-00.5832,+09.781,+00.554,+00.263,+00.000668,+00.011399,+00.008460,"$VNYMR,-092.751,+086.277,-115.680,-00.2297,+00.2021,-00.5832,+09.781,+00.554,+00.263,+00.000668,+00.011399,+00.008460*67
"
1712236681.8703568,-093.087,+086.282,-116.012,-00.2308,+00.2021,-00.5740,+09.792,+00.539,+00.288,+00.002043,+00.012259,+00.008401,"$VNYMR,-093.087,+086.282,-116.012,-00.2308,+00.2021,-00.5740,+09.792,+00.539,+00.288,+00.002043,+00.012259,+00.008401*6B
"
1712236681.896282,-093.415,+086.286,-116.337,-00.2328,+00.2139,-00.5769,+09.807,+00.575,+00.298,+00.001776,+00.010054,+00.008529,"$VNYMR,-093.415,+086.286,-116.337,-00.2328,+00.2139,-00.5769,+09.807,+00.575,+00.298,+00.001776,+00.010054,+00.008529*6B
"
1712236681.9248338,-093.746,+086.289,-116.660,-00.2307,+00.2080,-00.5820,+09.814,+00.563,+00.276,+00.000740,+00.010515,+00.008773,"$VNYMR,-093.746,+086.289,-116.660,-00.2307,+00.2080,-00.5820,+09.814,+00.563,+00.276,+00.000740,+00.010515,+00.008773*66
"
1712236681.9462173,-094.026,+086.293,-116.936,-00.2275,+00.1985,-00.5858,+09.788,+00.553,+00.292,+00.002485,+00.011058,+00.008486,"$VNYMR,-094.026,+086.293,-116.936,-00.2275,+00.1985,-00.5858,+09.788,+00.553,+00.292,+00.002485,+00.011058,+00.008486*6C
"
1712236681.9715803,-094.341,+086.296,-117.244,-00.2329,+00.2057,-00.5701,+09.813,+00.570,+00.273,+00.002165,+00.012481,+00.009074,"$VNYMR,-094.341,+086.296,-117.244,-00.2329,+00.2057,-00.5701,+09.813,+00.570,+00.273,+00.002165,+00.012481,+00.009074*69
"
1712236681.9990227,-094.660,+086.300,-117.556,-00.2286,+00.2020,-00.5845,+09.782,+00.560,+00.299,+00.000976,+00.012078,+00.008738,"$VNYMR,-094.660,+086.300,-117.556,-00.2286,+00.2020,-00.5845,+09.782,+00.560,+00.299,+00.000976,+00.012078,+00.008738*68
"
1712236682.0203078,-094.946,+086.305,-117.838,-00.2296,+00.2044,-00.5766,+09.798,+00.559,+00.287,+00.001490,+00.011088,+00.007379,"$VNYMR,-094.946,+086.305,-117.838,-00.2296,+00.2044,-00.5766,+09.798,+00.559,+00.287,+00.001490,+00.011088,+00.007379*66
"
1712236682.0475361,-095.262,+086.308,-118.152,-00.2295,+00.2127,-00.5807,+09.806,+00.546,+00.280,+00.002114,+00.010326,+00.008341,"$VNYMR,-095.262,+086.308,-118.152,-00.2295,+00.2127,-00.5807,+09.806,+00.546,+00.280,+00.002114,+00.010326,+00.008341*6B
"
1712236682.0711436,-095.545,+086.312,-118.434,-00.2307,+00.2080,-00.5874,+09.796,+00.550,+00.306,+00.001170,+00.010270,+00.007487,"$VNYMR,-095.545,+086.312,-118.434,-00.2307,+00.2080,-00.5874,+09.796,+00.550,+00.306,+00.001170,+00.010270,+00.007487*6A
"
1712236682.0986304,-095.855,+086.313,-118.741,-00.2286,+00.2020,-00.5859,+09.783,+00.565,+00.269,+00.001819,+00.011045,+00.008094,"$VNYMR,-095.855,+086.313,-118.741,-00.2286,+00.2020,-00.5859,+09.783,+00.565,+00.269,+00.001819,+00.011045,+00.008094*6B
"
1712236682.12333,-096.134,+086.316,-119.015,-00.2306,+00.2127,-00.5754,+09.778,+00.558,+00.293,+00.002028,+00.009654,+00.009109,"$VNYMR,-096.134,+086.316,-119.015,-00.2306,+00.2127,-00.5754,+09.778,+00.558,+00.293,+00.002028,+00.009654,+00.009109*64
"
1712236682.1482675,-096.391,+086.319,-119.274,-00.2275,+00.1996,-00.5858,+09.790,+00.575,+00.262,+00.002296,+00.010156,+00.007928,"$VNYMR,-096.391,+086.319,-119.274,-00.2275,+00.1996,-00.5858,+09.790,+00.575,+00.262,+00.002296,+00.010156,+00.007928*6C
"
1712236682.1712666,-096.655,+086.322,-119.536,-00.2318,+00.2056,-00.5807,+09.802,+00.560,+00.295,+00.002541,+00.008607,+00.006860,"$VNYMR,-096.655,+086.322,-119.536,-00.2318,+00.2056,-00.5807,+09.802,+00.560,+00.295,+00.002541,+00.008607,+00.006860*6D
"
1712236682.1958969,-096.913,+086.324,-119.792,-00.2307,+00.2092,-00.5780,+09.807,+00.563,+00.305,+00.000530,+00.009271,+00.006833,"$VNYMR,-096.913,+086.324,-119.792,-00.2307,+00.2092,-00.5780,+09.807,+00.563,+00.305,+00.000530,+00.009271,+00.006833*64
"
1712236682.2211204,-097.149,+086.325,-120.024,-00.2284,+00.2139,-00.5860,+09.773,+00.577,+00.278,+00.000455,+00.007127,+00.006430,"$VNYMR,-097.149,+086.325,-120.024,-00.2284,+00.2139,-00.5860,+09.773,+00.577,+00.278,+00.000455,+00.007127,+00.006430*69
"
1712236682.2487714,-097.334,+086.327,-120.208,-00.2285,+00.2068,-00.5846,+09.788,+00.574,+00.304,+00.000828,+00.006145,+00.005498,"$VNYMR,-097.334,+086.327,-120.208,-00.2285,+00.2068,-00.5846,+09.788,+00.574,+00.304,+00.000828,+00.006145,+00.005498*60
"
1712236682.2711143,-097.488,+086.330,-120.365,-00.2296,+00.2080,-00.5820,+09.789,+00.551,+00.295,+00.001584,+00.007438,+00.005991,"$VNYMR,-097.488,+086.330,-120.365,-00.2296,+00.2080,-00.5820,+09.789,+00.551,+00.295,+00.001584,+00.007438,+00.005991*67
"
1712236682.2969923,-097.653,+086.334,-120.525,-00.2286,+00.2009,-00.5898,+09.764,+00.545,+00.262,+00.001759,+00.005428,+00.006533,"$VNYMR,-097.653,+086.334,-120.525,-00.2286,+00.2009,-00.5898,+09.764,+00.545,+00.262,+00.001759,+00.005428,+00.006533*6E
"
1712236682.3226988,-097.818,+086.336,-120.688,-00.2296,+00.2044,-00.5833,+09.788,+00.530,+00.279,+00.001962,+00.004815,+00.005414,"$VNYMR,-097.818,+086.336,-120.688,-00.2296,+00.2044,-00.5833,+09.788,+00.530,+00.279,+00.001962,+00.004815,+00.005414*68
"
1712236682.3459115,-097.926,+086.338,-120.795,-00.2294,+00.2151,-00.5780,+09.796,+00.553,+00.271,+00.000781,+00.004194,+00.003497,"$VNYMR,-097.926,+086.338,-120.795,-00.2294,+00.2151,-00.5780,+09.796,+00.553,+00.271,+00.000781,+00.004194,+00.003497*6A
"
1712236682.3707504,-098.006,+086.340,-120.871,-00.2285,+00.2079,-00.5859,+09.797,+00.569,+00.256,+00.001352,+00.003393,+00.003430,"$VNYMR,-098.006,+086.340,-120.871,-00.2285,+00.2079,-00.5859,+09.797,+00.569,+00.256,+00.001352,+00.003393,+00.003430*6D
"
1712236682.3959017,-098.063,+086.341,-120.929,-00.2307,+00.2056,-00.5860,+09.794,+00.557,+00.275,+00.000470,+00.003447,+00.002286,"$VNYMR,-098.063,+086.341,-120.929,-00.2307,+00.2056,-00.5860,+09.794,+00.557,+00.275,+00.000470,+00.003447,+00.002286*62
"
1712236682.4205437,-098.164,+086.341,-121.029,-00.2307,+00.2056,-00.5740,+09.772,+00.553,+00.294,+00.000981,+00.001129,+00.002733,"$VNYMR,-098.164,+086.341,-121.029,-00.2307,+00.2056,-00.5740,+09.772,+00.553,+00.294,+00.000981,+00.001129,+00.002733*65
"
1712236682.4481595,-098.241,+086.340,-121.104,-00.2286,+00.2032,-00.5872,+09.795,+00.564,+00.294,+00.000592,+00.002982,+00.001479,"$VNYMR,-098.241,+086.340,-121.104,-00.2286,+00.2032,-00.5872,+09.795,+00.564,+00.294,+00.000592,+00.002982,+00.001479*6D
"
1712236682.4705667,-098.289,+086.341,-121.148,-00.2308,+00.2033,-00.5833,+09.788,+00.541,+00.296,+00.000050,-00.000012,+00.000404,"$VNYMR,-098.289,+086.341,-121.148,-00.2308,+00.2033,-00.5833,+09.788,+00.541,+00.296,+00.000050,-00.000012,+00.000404*6E
"
1712236682.4954317,-098.245,+086.342,-121.102,-00.2315,+00.2222,-00.5796,+09.793,+00.545,+00.300,+00.000174,+00.000533,+00.000421,"$VNYMR,-098.245,+086.342,-121.102,-00.2315,+00.2222,-00.5796,+09.793,+00.545,+00.300,+00.000174,+00.000533,+00.000421*6D
"
1712236682.5205393,-098.208,+086.342,-121.070,-00.2307,+00.2080,-00.5954,+09.809,+00.560,+00.318,-00.000157,-00.003432,-00.001226,"$VNYMR,-098.208,+086.342,-121.070,-00.2307,+00.2080,-00.5954,+09.809,+00.560,+00.318,-00.000157,-00.003432,-00.001226*6F
"
1712236682.5478761,-098.161,+086.340,-121.026,-00.2273,+00.2127,-00.5926,+09.803,+00.564,+00.295,+00.000266,-00.002715,-00.000333,"$VNYMR,-098.161,+086.340,-121.026,-00.2273,+00.2127,-00.5926,+09.803,+00.564,+00.295,+00.000266,-00.002715,-00.000333*67
"
1712236682.576405,-098.016,+086.343,-120.883,-00.2320,+00.1997,-00.5753,+09.805,+00.560,+00.263,-00.000106,-00.004948,-00.001974,"$VNYMR,-098.016,+086.343,-120.883,-00.2320,+00.1997,-00.5753,+09.805,+00.560,+00.263,-00.000106,-00.004948,-00.001974*68
"
1712236682.595812,-097.960,+086.343,-120.830,-00.2298,+00.1985,-00.5872,+09.790,+00.546,+00.279,-00.000849,-00.003097,-00.000541,"$VNYMR,-097.960,+086.343,-120.830,-00.2298,+00.1985,-00.5872,+09.790,+00.546,+00.279,-00.000849,-00.003097,-00.000541*63
"
1712236682.6208196,-097.837,+086.344,-120.706,-00.2307,+00.2056,-00.5793,+09.798,+00.538,+00.320,-00.000655,-00.004090,-00.002121,"$VNYMR,-097.837,+086.344,-120.706,-00.2307,+00.2056,-00.5793,+09.798,+00.538,+00.320,-00.000655,-00.004090,-00.002121*61
"
1712236682.645459,-097.680,+086.345,-120.554,-00.2306,+00.2115,-00.5794,+09.766,+00.541,+00.326,-00.001224,-00.006763,-00.003107,"$VNYMR,-097.680,+086.345,-120.554,-00.2306,+00.2115,-00.5794,+09.766,+00.541,+00.326,-00.001224,-00.006763,-00.003107*61
"
1712236682.6705232,-097.497,+086.345,-120.372,-00.2284,+00.2115,-00.5873,+09.786,+00.567,+00.280,+00.000412,-00.005370,-00.003478,"$VNYMR,-097.497,+086.345,-120.372,-00.2284,+00.2115,-00.5873,+09.786,+00.567,+00.280,+00.000412,-00.005370,-00.003478*61
"
1712236682.6960032,-097.292,+086.344,-120.173,-00.2273,+00.2091,-00.5859,+09.815,+00.557,+00.284,-00.000064,-00.006775,-00.005815,"$VNYMR,-097.292,+086.344,-120.173,-00.2273,+00.2091,-00.5859,+09.815,+00.557,+00.284,-00.000064,-00.006775,-00.005815*6F
"
1712236682.7206724,-097.143,+086.342,-120.028,-00.2341,+00.2045,-00.5755,+09.757,+00.538,+00.287,-00.000802,-00.006417,-00.004003,"$VNYMR,-097.143,+086.342,-120.028,-00.2341,+00.2045,-00.5755,+09.757,+00.538,+00.287,-00.000802,-00.006417,-00.004003*61
"
1712236682.7452853,-096.939,+086.341,-119.826,-00.2317,+00.2104,-00.5848,+09.790,+00.560,+00.290,-00.001948,-00.007598,-00.004812,"$VNYMR,-096.939,+086.341,-119.826,-00.2317,+00.2104,-00.5848,+09.790,+00.560,+00.290,-00.001948,-00.007598,-00.004812*6F
"
1712236682.7723079,-096.700,+086.340,-119.591,-00.2328,+00.2128,-00.5795,+09.803,+00.567,+00.308,-00.002059,-00.007010,-00.005420,"$VNYMR,-096.700,+086.340,-119.591,-00.2328,+00.2128,-00.5795,+09.803,+00.567,+00.308,-00.002059,-00.007010,-00.005420*67
"
1712236682.7963026,-096.466,+086.338,-119.363,-00.2306,+00.2115,-00.5794,+09.791,+00.547,+00.307,-00.001231,-00.008763,-00.006665,"$VNYMR,-096.466,+086.338,-119.363,-00.2306,+00.2115,-00.5794,+09.791,+00.547,+00.307,-00.001231,-00.008763,-00.006665*69
"
1712236682.826084,-096.232,+086.335,-119.134,-00.2273,+00.2091,-00.5885,+09.811,+00.555,+00.290,-00.001165,-00.009089,-00.007162,"$VNYMR,-096.232,+086.335,-119.134,-00.2273,+00.2091,-00.5885,+09.811,+00.555,+00.290,-00.001165,-00.009089,-00.007162*68
"
1712236682.847798,-095.956,+086.332,-118.863,-00.2296,+00.2056,-00.5860,+09.790,+00.553,+00.305,-00.002073,-00.010454,-00.007272,"$VNYMR,-095.956,+086.332,-118.863,-00.2296,+00.2056,-00.5860,+09.790,+00.553,+00.305,-00.002073,-00.010454,-00.007272*62
"
1712236682.8704867,-095.674,+086.330,-118.586,-00.2296,+00.2056,-00.5806,+09.780,+00.565,+00.279,-00.001105,-00.009778,-00.006766,"$VNYMR,-095.674,+086.330,-118.586,-00.2296,+00.2056,-00.5806,+09.780,+00.565,+00.279,-00.001105,-00.009778,-00.006766*60
"
1712236682.8975458,-095.390,+086.328,-118.304,-00.2286,+00.2009,-00.5885,+09.795,+00.592,+00.273,-00.000510,-00.011371,-00.007388,"$VNYMR,-095.390,+086.328,-118.304,-00.2286,+00.2009,-00.5885,+09.795,+00.592,+00.273,-00.000510,-00.011371,-00.007388*6C
"
1712236682.9204407,-095.074,+086.326,-117.989,-00.2328,+00.2139,-00.5809,+09.769,+00.551,+00.327,-00.001163,-00.010663,-00.008610,"$VNYMR,-095.074,+086.326,-117.989,-00.2328,+00.2139,-00.5809,+09.769,+00.551,+00.327,-00.001163,-00.010663,-00.008610*69
"
1712236682.9475658,-094.761,+086.323,-117.682,-00.2316,+00.2198,-00.5849,+09.772,+00.553,+00.287,-00.001549,-00.010204,-00.008065,"$VNYMR,-094.761,+086.323,-117.682,-00.2316,+00.2198,-00.5849,+09.772,+00.553,+00.287,-00.001549,-00.010204,-00.008065*66
"
1712236682.9703374,-094.456,+086.319,-117.380,-00.2307,+00.2080,-00.5887,+09.777,+00.555,+00.273,-00.001448,-00.011897,-00.008930,"$VNYMR,-094.456,+086.319,-117.380,-00.2307,+00.2080,-00.5887,+09.777,+00.555,+00.273,-00.001448,-00.011897,-00.008930*65
"
1712236682.9984722,-094.165,+086.313,-117.095,-00.2284,+00.2127,-00.5913,+09.824,+00.565,+00.320,-00.001237,-00.009902,-00.008724,"$VNYMR,-094.165,+086.313,-117.095,-00.2284,+00.2127,-00.5913,+09.824,+00.565,+00.320,-00.001237,-00.009902,-00.008724*6B
"
1712236683.0221598,-093.840,+086.309,-116.775,-00.2330,+00.2045,-00.5714,+09.680,+00.568,+00.273,-00.001502,-00.011074,-00.009263,"$VNYMR,-093.840,+086.309,-116.775,-00.2330,+00.2045,-00.5714,+09.680,+00.568,+00.273,-00.001502,-00.011074,-00.009263*6E
"
1712236683.045841,-093.543,+086.304,-116.481,-00.2296,+00.2044,-00.5819,+10.045,+00.590,+00.245,-00.000672,-00.012394,-00.008604,"$VNYMR,-093.543,+086.304,-116.481,-00.2296,+00.2044,-00.5819,+10.045,+00.590,+00.245,-00.000672,-00.012394,-00.008604*61
"
1712236683.0702393,-093.235,+086.301,-116.177,-00.2330,+00.2009,-00.5794,+09.443,+00.559,+00.306,-00.001354,-00.011562,-00.007203,"$VNYMR,-093.235,+086.301,-116.177,-00.2330,+00.2009,-00.5794,+09.443,+00.559,+00.306,-00.001354,-00.011562,-00.007203*69
"
1712236683.0953035,-092.960,+086.298,-115.902,-00.2316,+00.2198,-00.5836,+10.211,+00.582,+00.271,-00.001530,-00.011000,-00.007442,"$VNYMR,-092.960,+086.298,-115.902,-00.2316,+00.2198,-00.5836,+10.211,+00.582,+00.271,-00.001530,-00.011000,-00.007442*69
"
1712236683.1217685,-092.633,+086.294,-115.573,-00.2316,+00.2186,-00.5875,+09.406,+00.568,+00.325,+00.000554,-00.011898,-00.008400,"$VNYMR,-092.633,+086.294,-115.573,-00.2316,+00.2186,-00.5875,+09.406,+00.568,+00.325,+00.000554,-00.011898,-00.008400*67
"
1712236683.14645,-092.321,+086.290,-115.268,-00.2318,+00.2080,-00.5834,+10.147,+00.570,+00.275,-00.002133,-00.010486,-00.007328,"$VNYMR,-092.321,+086.290,-115.268,-00.2318,+00.2080,-00.5834,+10.147,+00.570,+00.275,-00.002133,-00.010486,-00.007328*60
"
1712236683.1711845,-092.019,+086.286,-114.966,-00.2341,+00.2021,-00.5741,+09.496,+00.557,+00.317,+00.000778,-00.011884,-00.008613,"$VNYMR,-092.019,+086.286,-114.966,-00.2341,+00.2021,-00.5741,+09.496,+00.557,+00.317,+00.000778,-00.011884,-00.008613*60
"
1712236683.1951685,-091.714,+086.283,-114.663,-00.2308,+00.2009,-00.5833,+09.939,+00.548,+00.287,-00.001834,-00.009401,-00.007815,"$VNYMR,-091.714,+086.283,-114.663,-00.2308,+00.2009,-00.5833,+09.939,+00.548,+00.287,-00.001834,-00.009401,-00.007815*6A
"
1712236683.2219691,-091.505,+086.278,-114.455,-00.2342,+00.1998,-00.5768,+09.811,+00.555,+00.238,+00.000266,-00.010103,-00.006845,"$VNYMR,-091.505,+086.278,-114.455,-00.2342,+00.1998,-00.5768,+09.811,+00.555,+00.238,+00.000266,-00.010103,-00.006845*64
"
1712236683.247427,-091.259,+086.274,-114.209,-00.2329,+00.2104,-00.5755,+09.647,+00.552,+00.295,-00.002129,-00.009166,-00.006718,"$VNYMR,-091.259,+086.274,-114.209,-00.2329,+00.2104,-00.5755,+09.647,+00.552,+00.295,-00.002129,-00.009166,-00.006718*69
"
1712236683.269903,-091.050,+086.270,-114.004,-00.2338,+00.2163,-00.5863,+10.017,+00.551,+00.283,-00.000849,-00.008294,-00.007315,"$VNYMR,-091.050,+086.270,-114.004,-00.2338,+00.2163,-00.5863,+10.017,+00.551,+00.283,-00.000849,-00.008294,-00.007315*67
"
1712236683.2951248,-090.802,+086.266,-113.754,-00.2320,+00.1997,-00.5807,+09.524,+00.575,+00.305,-00.000448,-00.009221,-00.005057,"$VNYMR,-090.802,+086.266,-113.754,-00.2320,+00.1997,-00.5807,+09.524,+00.575,+00.305,-00.000448,-00.009221,-00.005057*61
"
1712236683.3198314,-090.580,+086.263,-113.535,-00.2353,+00.2010,-00.5742,+09.984,+00.550,+00.273,-00.000360,-00.006485,-00.006010,"$VNYMR,-090.580,+086.263,-113.535,-00.2353,+00.2010,-00.5742,+09.984,+00.550,+00.273,-00.000360,-00.006485,-00.006010*62
"
1712236683.347055,-090.356,+086.260,-113.311,-00.2319,+00.2033,-00.5794,+09.654,+00.567,+00.313,+00.000405,-00.009160,-00.005908,"$VNYMR,-090.356,+086.260,-113.311,-00.2319,+00.2033,-00.5794,+09.654,+00.567,+00.313,+00.000405,-00.009160,-00.005908*69
"
1712236683.36981,-090.208,+086.256,-113.167,-00.2340,+00.2092,-00.5755,+09.854,+00.554,+00.260,-00.000789,-00.005503,-00.005316,"$VNYMR,-090.208,+086.256,-113.167,-00.2340,+00.2092,-00.5755,+09.854,+00.554,+00.260,-00.000789,-00.005503,-00.005316*6D
"
1712236683.3947635,-090.055,+086.254,-113.015,-00.2362,+00.2081,-00.5743,+09.802,+00.577,+00.260,+00.000266,-00.007314,-00.004614,"$VNYMR,-090.055,+086.254,-113.015,-00.2362,+00.2081,-00.5743,+09.802,+00.577,+00.260,+00.000266,-00.007314,-00.004614*60
"
1712236683.421984,-089.892,+086.252,-112.850,-00.2307,+00.2092,-00.5834,+09.737,+00.585,+00.282,+00.000292,-00.004779,-00.005223,"$VNYMR,-089.892,+086.252,-112.850,-00.2307,+00.2092,-00.5834,+09.737,+00.585,+00.282,+00.000292,-00.004779,-00.005223*65
"
1712236683.4444575,-089.727,+086.251,-112.685,-00.2329,+00.2092,-00.5795,+09.833,+00.556,+00.235,+00.000055,-00.006000,-00.003361,"$VNYMR,-089.727,+086.251,-112.685,-00.2329,+00.2092,-00.5795,+09.833,+00.556,+00.235,+00.000055,-00.006000,-00.003361*63
"
1712236683.4706213,-089.598,+086.251,-112.559,-00.2352,+00.2022,-00.5742,+09.746,+00.548,+00.278,+00.000163,-00.004627,-00.001815,"$VNYMR,-089.598,+086.251,-112.559,-00.2352,+00.2022,-00.5742,+09.746,+00.548,+00.278,+00.000163,-00.004627,-00.001815*6E
"
1712236683.494551,-089.524,+086.250,-112.486,-00.2308,+00.1997,-00.5886,+09.822,+00.602,+00.259,+00.000225,-00.004823,-00.000393,"$VNYMR,-089.524,+086.250,-112.486,-00.2308,+00.1997,-00.5886,+09.822,+00.602,+00.259,+00.000225,-00.004823,-00.000393*6B
"
1712236683.5195293,-089.417,+086.250,-112.376,-00.2319,+00.2033,-00.5780,+09.764,+00.543,+00.278,+00.000488,-00.002565,-00.002132,"$VNYMR,-089.417,+086.250,-112.376,-00.2319,+00.2033,-00.5780,+09.764,+00.543,+00.278,+00.000488,-00.002565,-00.002132*64
"
1712236683.5444288,-089.361,+086.248,-112.317,-00.2363,+00.2069,-00.5756,+09.782,+00.573,+00.285,+00.000278,-00.001853,-00.002084,"$VNYMR,-089.361,+086.248,-112.317,-00.2363,+00.2069,-00.5756,+09.782,+00.573,+00.285,+00.000278,-00.001853,-00.002084*62
"
1712236683.571142,-089.340,+086.248,-112.298,-00.2329,+00.2068,-00.5835,+09.805,+00.567,+00.314,+00.000391,+00.000085,+00.000173,"$VNYMR,-089.340,+086.248,-112.298,-00.2329,+00.2068,-00.5835,+09.805,+00.567,+00.314,+00.000391,+00.000085,+00.000173*61
"
1712236683.5974932,-089.347,+086.248,-112.305,-00.2319,+00.2021,-00.5820,+09.749,+00.605,+00.230,-00.000790,-00.001325,+00.000772,"$VNYMR,-089.347,+086.248,-112.305,-00.2319,+00.2021,-00.5820,+09.749,+00.605,+00.230,-00.000790,-00.001325,+00.000772*64
"
1712236683.619406,-089.372,+086.249,-112.334,-00.2397,+00.1999,-00.5771,+09.829,+00.529,+00.296,-00.000781,+00.002315,+00.000897,"$VNYMR,-089.372,+086.249,-112.334,-00.2397,+00.1999,-00.5771,+09.829,+00.529,+00.296,-00.000781,+00.002315,+00.000897*6F
"
1712236683.6449661,-089.413,+086.250,-112.371,-00.2341,+00.2057,-00.5822,+09.748,+00.563,+00.250,+00.000943,-00.001202,+00.001330,"$VNYMR,-089.413,+086.250,-112.371,-00.2341,+00.2057,-00.5822,+09.748,+00.563,+00.250,+00.000943,-00.001202,+00.001330*63
"
1712236683.6719248,-089.485,+086.251,-112.443,-00.2373,+00.2105,-00.5797,+09.808,+00.523,+00.291,-00.000223,+00.002028,+00.002440,"$VNYMR,-089.485,+086.251,-112.443,-00.2373,+00.2105,-00.5797,+09.808,+00.523,+00.291,-00.000223,+00.002028,+00.002440*68
"
1712236683.6941838,-089.540,+086.254,-112.500,-00.2373,+00.2117,-00.5771,+09.784,+00.598,+00.269,+00.000257,+00.000800,+00.003013,"$VNYMR,-089.540,+086.254,-112.500,-00.2373,+00.2117,-00.5771,+09.784,+00.598,+00.269,+00.000257,+00.000800,+00.003013*62
"
1712236683.7216902,-089.653,+086.256,-112.612,-00.2340,+00.2080,-00.5875,+09.779,+00.564,+00.270,-00.000491,+00.002839,+00.003141,"$VNYMR,-089.653,+086.256,-112.612,-00.2340,+00.2080,-00.5875,+09.779,+00.564,+00.270,-00.000491,+00.002839,+00.003141*68
"
1712236683.7444904,-089.778,+086.259,-112.736,-00.2340,+00.2104,-00.5822,+09.796,+00.581,+00.254,+00.000924,+00.002780,+00.004635,"$VNYMR,-089.778,+086.259,-112.736,-00.2340,+00.2104,-00.5822,+09.796,+00.581,+00.254,+00.000924,+00.002780,+00.004635*60
"
1712236683.7716148,-089.933,+086.262,-112.891,-00.2353,+00.2010,-00.5715,+09.783,+00.559,+00.268,-00.000280,+00.005071,+00.004974,"$VNYMR,-089.933,+086.262,-112.891,-00.2353,+00.2010,-00.5715,+09.783,+00.559,+00.268,-00.000280,+00.005071,+00.004974*6F
"
1712236683.7942638,-090.107,+086.265,-113.063,-00.2320,+00.1985,-00.5860,+09.798,+00.596,+00.307,+00.001239,+00.005152,+00.004179,"$VNYMR,-090.107,+086.265,-113.063,-00.2320,+00.1985,-00.5860,+09.798,+00.596,+00.307,+00.001239,+00.005152,+00.004179*65
"
1712236683.818998,-090.314,+086.266,-113.270,-00.2364,+00.1986,-00.5769,+09.777,+00.560,+00.295,-00.000071,+00.006366,+00.004430,"$VNYMR,-090.314,+086.266,-113.270,-00.2364,+00.1986,-00.5769,+09.777,+00.560,+00.295,-00.000071,+00.006366,+00.004430*66
"
1712236683.8450959,-090.492,+086.269,-113.445,-00.2373,+00.2093,-00.5744,+09.777,+00.584,+00.255,+00.000144,+00.008828,+00.005241,"$VNYMR,-090.492,+086.269,-113.445,-00.2373,+00.2093,-00.5744,+09.777,+00.584,+00.255,+00.000144,+00.008828,+00.005241*6E
"
1712236683.8706496,-090.712,+086.273,-113.663,-00.2329,+00.2080,-00.5848,+09.785,+00.567,+00.238,+00.001377,+00.007475,+00.006858,"$VNYMR,-090.712,+086.273,-113.663,-00.2329,+00.2080,-00.5848,+09.785,+00.567,+00.238,+00.001377,+00.007475,+00.006858*64
"
1712236683.8937159,-090.962,+086.276,-113.910,-00.2308,+00.2021,-00.5806,+09.803,+00.568,+00.265,+00.001044,+00.010097,+00.005781,"$VNYMR,-090.962,+086.276,-113.910,-00.2308,+00.2021,-00.5806,+09.803,+00.568,+00.265,+00.001044,+00.010097,+00.005781*62
"
1712236683.9217317,-091.185,+086.281,-114.134,-00.2341,+00.2021,-00.5768,+09.758,+00.548,+00.284,+00.001717,+00.008162,+00.007413,"$VNYMR,-091.185,+086.281,-114.134,-00.2341,+00.2021,-00.5768,+09.758,+00.548,+00.284,+00.001717,+00.008162,+00.007413*6C
"
1712236683.9439223,-091.413,+086.286,-114.359,-00.2330,+00.2033,-00.5834,+09.831,+00.564,+00.256,+00.000993,+00.009336,+00.006564,"$VNYMR,-091.413,+086.286,-114.359,-00.2330,+00.2033,-00.5834,+09.831,+00.564,+00.256,+00.000993,+00.009336,+00.006564*6B
"
1712236683.972177,-091.667,+086.290,-114.609,-00.2364,+00.2010,-00.5742,+09.786,+00.576,+00.302,+00.001723,+00.007562,+00.008427,"$VNYMR,-091.667,+086.290,-114.609,-00.2364,+00.2010,-00.5742,+09.786,+00.576,+00.302,+00.001723,+00.007562,+00.008427*66
"
1712236683.9939573,-091.930,+086.295,-114.871,-00.2329,+00.2104,-00.5742,+09.801,+00.570,+00.260,+00.001754,+00.008984,+00.007423,"$VNYMR,-091.930,+086.295,-114.871,-00.2329,+00.2104,-00.5742,+09.801,+00.570,+00.260,+00.001754,+00.008984,+00.007423*61
"
1712236684.0192215,-092.240,+086.299,-115.176,-00.2329,+00.2092,-00.5875,+09.767,+00.554,+00.300,+00.001552,+00.011329,+00.008737,"$VNYMR,-092.240,+086.299,-115.176,-00.2329,+00.2092,-00.5875,+09.767,+00.554,+00.300,+00.001552,+00.011329,+00.008737*6E
"
1712236684.0438802,-092.533,+086.304,-115.471,-00.2317,+00.2151,-00.5822,+09.810,+00.541,+00.290,+00.002682,+00.009672,+00.007715,"$VNYMR,-092.533,+086.304,-115.471,-00.2317,+00.2151,-00.5822,+09.810,+00.541,+00.290,+00.002682,+00.009672,+00.007715*68
"
1712236684.0731835,-092.849,+086.309,-115.786,-00.2363,+00.2034,-00.5743,+09.787,+00.575,+00.265,+00.001669,+00.011419,+00.009535,"$VNYMR,-092.849,+086.309,-115.786,-00.2363,+00.2034,-00.5743,+09.787,+00.575,+00.265,+00.001669,+00.011419,+00.009535*65
"
1712236684.0936296,-093.132,+086.314,-116.069,-00.2331,+00.1986,-00.5834,+09.772,+00.545,+00.293,+00.000068,+00.010784,+00.007059,"$VNYMR,-093.132,+086.314,-116.069,-00.2331,+00.1986,-00.5834,+09.772,+00.545,+00.293,+00.000068,+00.010784,+00.007059*62
"
1712236684.1185107,-093.440,+086.318,-116.374,-00.2329,+00.2057,-00.5795,+09.759,+00.589,+00.275,+00.000935,+00.012212,+00.009240,"$VNYMR,-093.440,+086.318,-116.374,-00.2329,+00.2057,-00.5795,+09.759,+00.589,+00.275,+00.000935,+00.012212,+00.009240*66
"
1712236684.1441774,-093.753,+086.321,-116.682,-00.2337,+00.2222,-00.5837,+09.789,+00.539,+00.267,+00.001545,+00.011013,+00.008638,"$VNYMR,-093.753,+086.321,-116.682,-00.2337,+00.2222,-00.5837,+09.789,+00.539,+00.267,+00.001545,+00.011013,+00.008638*6C
"
1712236684.1685648,-094.078,+086.324,-117.003,-00.2316,+00.2198,-00.5849,+09.811,+00.588,+00.284,+00.001453,+00.011958,+00.007674,"$VNYMR,-094.078,+086.324,-117.003,-00.2316,+00.2198,-00.5849,+09.811,+00.588,+00.284,+00.001453,+00.011958,+00.007674*68
"
1712236684.1938987,-094.369,+086.327,-117.292,-00.2297,+00.2032,-00.5833,+09.764,+00.545,+00.298,+00.002017,+00.009894,+00.007776,"$VNYMR,-094.369,+086.327,-117.292,-00.2297,+00.2032,-00.5833,+09.764,+00.545,+00.298,+00.002017,+00.009894,+00.007776*6B
"
1712236684.2185593,-094.677,+086.329,-117.597,-00.2330,+00.2021,-00.5794,+09.832,+00.587,+00.280,+00.000577,+00.010420,+00.008443,"$VNYMR,-094.677,+086.329,-117.597,-00.2330,+00.2021,-00.5794,+09.832,+00.587,+00.280,+00.000577,+00.010420,+00.008443*6A
"
1712236684.245922,-094.962,+086.332,-117.877,-00.2320,+00.1985,-00.5860,+09.767,+00.553,+00.269,+00.002264,+00.011531,+00.007300,"$VNYMR,-094.962,+086.332,-117.877,-00.2320,+00.1985,-00.5860,+09.767,+00.553,+00.269,+00.002264,+00.011531,+00.007300*60
"
1712236684.2685368,-095.254,+086.334,-118.163,-00.2330,+00.2033,-00.5768,+09.778,+00.554,+00.261,+00.001970,+00.010323,+00.007624,"$VNYMR,-095.254,+086.334,-118.163,-00.2330,+00.2033,-00.5768,+09.778,+00.554,+00.261,+00.001970,+00.010323,+00.007624*60
"
1712236684.2933147,-095.503,+086.336,-118.412,-00.2317,+00.2139,-00.5795,+09.776,+00.533,+00.313,+00.000259,+00.009106,+00.006804,"$VNYMR,-095.503,+086.336,-118.412,-00.2317,+00.2139,-00.5795,+09.776,+00.533,+00.313,+00.000259,+00.009106,+00.006804*62
"
1712236684.318577,-095.783,+086.338,-118.692,-00.2351,+00.2092,-00.5863,+09.917,+00.556,+00.260,+00.002832,+00.009189,+00.007698,"$VNYMR,-095.783,+086.338,-118.692,-00.2351,+00.2092,-00.5863,+09.917,+00.556,+00.260,+00.002832,+00.009189,+00.007698*6F
"
1712236684.3459208,-096.070,+086.339,-118.975,-00.2308,+00.2021,-00.5833,+09.567,+00.556,+00.293,+00.001389,+00.009909,+00.006699,"$VNYMR,-096.070,+086.339,-118.975,-00.2308,+00.2021,-00.5833,+09.567,+00.556,+00.293,+00.001389,+00.009909,+00.006699*6E
"
1712236684.3684547,-096.375,+086.340,-119.277,-00.2353,+00.2010,-00.5742,+10.091,+00.561,+00.243,+00.002673,+00.007674,+00.006641,"$VNYMR,-096.375,+086.340,-119.277,-00.2353,+00.2010,-00.5742,+10.091,+00.561,+00.243,+00.002673,+00.007674,+00.006641*6B
"
1712236684.3933947,-096.593,+086.342,-119.492,-00.2320,+00.1997,-00.5860,+09.422,+00.541,+00.342,+00.001591,+00.008605,+00.005715,"$VNYMR,-096.593,+086.342,-119.492,-00.2320,+00.1997,-00.5860,+09.422,+00.541,+00.342,+00.001591,+00.008605,+00.005715*64
"
1712236684.4184363,-096.853,+086.342,-119.754,-00.2329,+00.2057,-00.5795,+10.142,+00.532,+00.258,+00.000692,+00.009968,+00.005649,"$VNYMR,-096.853,+086.342,-119.754,-00.2329,+00.2057,-00.5795,+10.142,+00.532,+00.258,+00.000692,+00.009968,+00.005649*6F
"
1712236684.443544,-097.060,+086.341,-119.959,-00.2328,+00.2139,-00.5782,+09.523,+00.580,+00.351,+00.002099,+00.007219,+00.004056,"$VNYMR,-097.060,+086.341,-119.959,-00.2328,+00.2139,-00.5782,+09.523,+00.580,+00.351,+00.002099,+00.007219,+00.004056*67
"
1712236684.4697847,-097.259,+086.341,-120.157,-00.2306,+00.2103,-00.5834,+10.024,+00.544,+00.268,+00.000435,+00.009165,+00.004436,"$VNYMR,-097.259,+086.341,-120.157,-00.2306,+00.2103,-00.5834,+10.024,+00.544,+00.268,+00.000435,+00.009165,+00.004436*69
"
1712236684.4934402,-097.423,+086.341,-120.319,-00.2319,+00.2045,-00.5887,+09.668,+00.599,+00.365,+00.001381,+00.005283,+00.003298,"$VNYMR,-097.423,+086.341,-120.319,-00.2319,+00.2045,-00.5887,+09.668,+00.599,+00.365,+00.001381,+00.005283,+00.003298*6E
"
1712236684.5184026,-097.568,+086.341,-120.461,-00.2351,+00.2116,-00.5783,+09.877,+00.547,+00.286,+00.000211,+00.008368,+00.004459,"$VNYMR,-097.568,+086.341,-120.461,-00.2351,+00.2116,-00.5783,+09.877,+00.547,+00.286,+00.000211,+00.008368,+00.004459*6B
"
1712236684.5432742,-097.751,+086.339,-120.645,-00.2330,+00.2009,-00.5847,+09.747,+00.586,+00.355,+00.000741,+00.001618,+00.003774,"$VNYMR,-097.751,+086.339,-120.645,-00.2330,+00.2009,-00.5847,+09.747,+00.586,+00.355,+00.000741,+00.001618,+00.003774*69
"
1712236684.5703135,-097.833,+086.340,-120.728,-00.2319,+00.2045,-00.5834,+09.822,+00.534,+00.303,+00.000994,+00.002754,+00.002097,"$VNYMR,-097.833,+086.340,-120.728,-00.2319,+00.2045,-00.5834,+09.822,+00.534,+00.303,+00.000994,+00.002754,+00.002097*60
"
1712236684.5946336,-097.932,+086.337,-120.826,-00.2328,+00.2151,-00.5796,+09.764,+00.593,+00.327,+00.001351,+00.003553,-00.000448,"$VNYMR,-097.932,+086.337,-120.826,-00.2328,+00.2151,-00.5796,+09.764,+00.593,+00.327,+00.001351,+00.003553,-00.000448*62
"
1712236684.618013,-097.953,+086.337,-120.849,-00.2328,+00.2139,-00.5889,+09.825,+00.543,+00.272,-00.000421,+00.002394,+00.000711,"$VNYMR,-097.953,+086.337,-120.849,-00.2328,+00.2139,-00.5889,+09.825,+00.543,+00.272,-00.000421,+00.002394,+00.000711*67
"
1712236684.6457713,-097.966,+086.337,-120.863,-00.2307,+00.2080,-00.5860,+09.794,+00.588,+00.290,+00.000578,+00.002056,+00.000414,"$VNYMR,-097.966,+086.337,-120.863,-00.2307,+00.2080,-00.5860,+09.794,+00.588,+00.290,+00.000578,+00.002056,+00.000414*6E
"
1712236684.6706192,-097.989,+086.337,-120.886,-00.2331,+00.1974,-00.5740,+09.799,+00.556,+00.284,+00.000909,+00.002720,+00.000126,"$VNYMR,-097.989,+086.337,-120.886,-00.2331,+00.1974,-00.5740,+09.799,+00.556,+00.284,+00.000909,+00.002720,+00.000126*6E
"
1712236684.6963592,-097.995,+086.335,-120.895,-00.2308,+00.2044,-00.5807,+09.799,+00.550,+00.307,+00.000498,+00.002062,-00.001118,"$VNYMR,-097.995,+086.335,-120.895,-00.2308,+00.2044,-00.5807,+09.799,+00.550,+00.307,+00.000498,+00.002062,-00.001118*6E
"
1712236684.7181075,-097.995,+086.333,-120.895,-00.2307,+00.2056,-00.5793,+09.789,+00.550,+00.288,+00.000139,+00.001013,-00.000115,"$VNYMR,-097.995,+086.333,-120.895,-00.2307,+00.2056,-00.5793,+09.789,+00.550,+00.288,+00.000139,+00.001013,-00.000115*66
"
1712236684.743059,-097.968,+086.331,-120.867,-00.2339,+00.2128,-00.5796,+09.783,+00.562,+00.299,+00.000111,-00.000047,-00.003127,"$VNYMR,-097.968,+086.331,-120.867,-00.2339,+00.2128,-00.5796,+09.783,+00.562,+00.299,+00.000111,-00.000047,-00.003127*6E
"
1712236684.7682009,-097.921,+086.327,-120.820,-00.2317,+00.2104,-00.5888,+09.812,+00.549,+00.275,-00.000365,-00.002536,-00.003486,"$VNYMR,-097.921,+086.327,-120.820,-00.2317,+00.2104,-00.5888,+09.812,+00.549,+00.275,-00.000365,-00.002536,-00.003486*61
"
1712236684.7958782,-097.866,+086.323,-120.767,-00.2283,+00.2162,-00.5927,+09.791,+00.542,+00.355,-00.000226,-00.000826,-00.002840,"$VNYMR,-097.866,+086.323,-120.767,-00.2283,+00.2162,-00.5927,+09.791,+00.542,+00.355,-00.000226,-00.000826,-00.002840*60
"
1712236684.8180869,-097.753,+086.320,-120.654,-00.2352,+00.2022,-00.5795,+09.834,+00.585,+00.245,-00.000293,-00.005401,-00.003372,"$VNYMR,-097.753,+086.320,-120.654,-00.2352,+00.2022,-00.5795,+09.834,+00.585,+00.245,-00.000293,-00.005401,-00.003372*66
"
1712236684.8461933,-097.620,+086.318,-120.520,-00.2317,+00.2104,-00.5848,+09.781,+00.540,+00.336,-00.000326,-00.003936,-00.005343,"$VNYMR,-097.620,+086.318,-120.520,-00.2317,+00.2104,-00.5848,+09.781,+00.540,+00.336,-00.000326,-00.003936,-00.005343*6A
"
1712236684.8679597,-097.436,+086.316,-120.341,-00.2320,+00.1997,-00.5793,+09.824,+00.558,+00.268,-00.000346,-00.005730,-00.004649,"$VNYMR,-097.436,+086.316,-120.341,-00.2320,+00.1997,-00.5793,+09.824,+00.558,+00.268,-00.000346,-00.005730,-00.004649*69
"
1712236684.8942256,-097.304,+086.312,-120.210,-00.2339,+00.2116,-00.5796,+09.776,+00.551,+00.328,-00.001215,-00.005052,-00.006309,"$VNYMR,-097.304,+086.312,-120.210,-00.2339,+00.2116,-00.5796,+09.776,+00.551,+00.328,-00.001215,-00.005052,-00.006309*63
"
1712236684.9189146,-097.066,+086.310,-119.974,-00.2306,+00.2103,-00.5847,+09.819,+00.567,+00.306,-00.001199,-00.004668,-00.005474,"$VNYMR,-097.066,+086.310,-119.974,-00.2306,+00.2103,-00.5847,+09.819,+00.567,+00.306,-00.001199,-00.004668,-00.005474*66
"
1712236684.9436529,-096.888,+086.307,-119.796,-00.2286,+00.2009,-00.5845,+09.787,+00.551,+00.308,-00.001238,-00.006676,-00.005609,"$VNYMR,-096.888,+086.307,-119.796,-00.2286,+00.2009,-00.5845,+09.787,+00.551,+00.308,-00.001238,-00.006676,-00.005609*65
"
1712236684.9704447,-096.656,+086.303,-119.565,-00.2352,+00.2022,-00.5782,+09.789,+00.563,+00.251,-00.000478,-00.007868,-00.006283,"$VNYMR,-096.656,+086.303,-119.565,-00.2352,+00.2022,-00.5782,+09.789,+00.563,+00.251,-00.000478,-00.007868,-00.006283*63
"
1712236684.9972544,-096.455,+086.298,-119.371,-00.2296,+00.2068,-00.5833,+09.794,+00.584,+00.309,-00.001329,-00.008750,-00.006917,"$VNYMR,-096.455,+086.298,-119.371,-00.2296,+00.2068,-00.5833,+09.794,+00.584,+00.309,-00.001329,-00.008750,-00.006917*66
"
1712236685.0176885,-096.229,+086.294,-119.146,-00.2330,+00.2021,-00.5794,+09.790,+00.555,+00.290,-00.000626,-00.008212,-00.008167,"$VNYMR,-096.229,+086.294,-119.146,-00.2330,+00.2021,-00.5794,+09.790,+00.555,+00.290,-00.000626,-00.008212,-00.008167*63
"
1712236685.0457435,-095.991,+086.290,-118.911,-00.2328,+00.2139,-00.5809,+09.832,+00.591,+00.307,-00.000434,-00.009476,-00.007677,"$VNYMR,-095.991,+086.290,-118.911,-00.2328,+00.2139,-00.5809,+09.832,+00.591,+00.307,-00.000434,-00.009476,-00.007677*60
"
1712236685.0686305,-095.720,+086.285,-118.641,-00.2316,+00.2186,-00.5862,+09.782,+00.564,+00.278,-00.000929,-00.009950,-00.010364,"$VNYMR,-095.720,+086.285,-118.641,-00.2316,+00.2186,-00.5862,+09.782,+00.564,+00.278,-00.000929,-00.009950,-00.010364*60
"
1712236685.093678,-095.463,+086.279,-118.385,-00.2319,+00.2021,-00.5834,+09.804,+00.550,+00.304,-00.000420,-00.009902,-00.008449,"$VNYMR,-095.463,+086.279,-118.385,-00.2319,+00.2021,-00.5834,+09.804,+00.550,+00.304,-00.000420,-00.009902,-00.008449*64
"
1712236685.117391,-095.172,+086.276,-118.096,-00.2342,+00.1986,-00.5781,+09.806,+00.559,+00.278,-00.001382,-00.008571,-00.008408,"$VNYMR,-095.172,+086.276,-118.096,-00.2342,+00.1986,-00.5781,+09.806,+00.559,+00.278,-00.001382,-00.008571,-00.008408*64
"
1712236685.1433315,-094.833,+086.273,-117.759,-00.2309,+00.1962,-00.5926,+09.799,+00.547,+00.315,-00.001592,-00.010637,-00.008837,"$VNYMR,-094.833,+086.273,-117.759,-00.2309,+00.1962,-00.5926,+09.799,+00.547,+00.315,-00.001592,-00.010637,-00.008837*62
"
1712236685.1678727,-094.547,+086.270,-117.475,-00.2353,+00.1998,-00.5755,+09.809,+00.542,+00.265,-00.000541,-00.011181,-00.008595,"$VNYMR,-094.547,+086.270,-117.475,-00.2353,+00.1998,-00.5755,+09.809,+00.542,+00.265,-00.000541,-00.011181,-00.008595*66
"
1712236685.1936507,-094.254,+086.267,-117.181,-00.2317,+00.2139,-00.5848,+09.790,+00.549,+00.271,-00.001991,-00.010852,-00.008968,"$VNYMR,-094.254,+086.267,-117.181,-00.2317,+00.2139,-00.5848,+09.790,+00.549,+00.271,-00.001991,-00.010852,-00.008968*61
"
1712236685.2183537,-093.929,+086.263,-116.861,-00.2316,+00.2163,-00.5862,+09.792,+00.545,+00.295,-00.001095,-00.011714,-00.009197,"$VNYMR,-093.929,+086.263,-116.861,-00.2316,+00.2163,-00.5862,+09.792,+00.545,+00.295,-00.001095,-00.011714,-00.009197*6F
"
1712236685.2435496,-093.605,+086.261,-116.540,-00.2330,+00.2021,-00.5807,+09.799,+00.566,+00.297,-00.000536,-00.010623,-00.008777,"$VNYMR,-093.605,+086.261,-116.540,-00.2330,+00.2021,-00.5807,+09.799,+00.566,+00.297,-00.000536,-00.010623,-00.008777*6A
"
1712236685.2721822,-093.340,+086.256,-116.280,-00.2296,+00.2068,-00.5726,+09.812,+00.600,+00.288,-00.000722,-00.011261,-00.007444,"$VNYMR,-093.340,+086.256,-116.280,-00.2296,+00.2068,-00.5726,+09.812,+00.600,+00.288,-00.000722,-00.011261,-00.007444*64
"
1712236685.2926083,-093.040,+086.254,-115.979,-00.2320,+00.1997,-00.5900,+09.793,+00.558,+00.270,-00.002566,-00.010729,-00.006726,"$VNYMR,-093.040,+086.254,-115.979,-00.2320,+00.1997,-00.5900,+09.793,+00.558,+00.270,-00.002566,-00.010729,-00.006726*66
"
1712236685.3175757,-092.747,+086.251,-115.692,-00.2339,+00.2140,-00.5783,+09.820,+00.566,+00.301,-00.001208,-00.010812,-00.007972,"$VNYMR,-092.747,+086.251,-115.692,-00.2339,+00.2140,-00.5783,+09.820,+00.566,+00.301,-00.001208,-00.010812,-00.007972*6C
"
1712236685.3433506,-092.433,+086.249,-115.381,-00.2328,+00.2128,-00.5769,+09.778,+00.589,+00.320,-00.000770,-00.010132,-00.007824,"$VNYMR,-092.433,+086.249,-115.381,-00.2328,+00.2128,-00.5769,+09.778,+00.589,+00.320,-00.000770,-00.010132,-00.007824*6A
"
1712236685.3685343,-092.174,+086.246,-115.123,-00.2339,+00.2116,-00.5849,+09.804,+00.568,+00.289,+00.000375,-00.009265,-00.007356,"$VNYMR,-092.174,+086.246,-115.123,-00.2339,+00.2116,-00.5849,+09.804,+00.568,+00.289,+00.000375,-00.009265,-00.007356*60
"
1712236685.3954315,-091.943,+086.242,-114.894,-00.2285,+00.2079,-00.5859,+09.786,+00.550,+00.275,-00.000642,-00.011767,-00.007744,"$VNYMR,-091.943,+086.242,-114.894,-00.2285,+00.2079,-00.5859,+09.786,+00.550,+00.275,-00.000642,-00.011767,-00.007744*63
"
1712236685.4182482,-091.675,+086.239,-114.626,-00.2341,+00.2021,-00.5688,+09.814,+00.582,+00.252,-00.000540,-00.010193,-00.005322,"$VNYMR,-091.675,+086.239,-114.626,-00.2341,+00.2021,-00.5688,+09.814,+00.582,+00.252,-00.000540,-00.010193,-00.005322*61
"
1712236685.4456742,-091.437,+086.239,-114.390,-00.2319,+00.2045,-00.5834,+09.789,+00.550,+00.271,-00.000907,-00.011504,-00.005589,"$VNYMR,-091.437,+086.239,-114.390,-00.2319,+00.2045,-00.5834,+09.789,+00.550,+00.271,-00.000907,-00.011504,-00.005589*6D
"
1712236685.4711604,-091.195,+086.240,-114.147,-00.2341,+00.2021,-00.5808,+09.830,+00.604,+00.309,-00.000619,-00.009568,-00.005014,"$VNYMR,-091.195,+086.240,-114.147,-00.2341,+00.2021,-00.5808,+09.830,+00.604,+00.309,-00.000619,-00.009568,-00.005014*65
"
1712236685.4932227,-090.961,+086.241,-113.911,-00.2338,+00.2199,-00.5863,+09.761,+00.561,+00.308,-00.000858,-00.011525,-00.006367,"$VNYMR,-090.961,+086.241,-113.911,-00.2338,+00.2199,-00.5863,+09.761,+00.561,+00.308,-00.000858,-00.011525,-00.006367*6E
"
1712236685.518194,-090.734,+086.240,-113.682,-00.2339,+00.2163,-00.5796,+09.787,+00.582,+00.263,+00.000531,-00.009169,-00.003682,"$VNYMR,-090.734,+086.240,-113.682,-00.2339,+00.2163,-00.5796,+09.787,+00.582,+00.263,+00.000531,-00.009169,-00.003682*66
"
1712236685.5456464,-090.548,+086.239,-113.497,-00.2318,+00.2092,-00.5861,+09.787,+00.554,+00.267,-00.000545,-00.009775,-00.003617,"$VNYMR,-090.548,+086.239,-113.497,-00.2318,+00.2092,-00.5861,+09.787,+00.554,+00.267,-00.000545,-00.009775,-00.003617*61
"
1712236685.5682895,-090.355,+086.239,-113.306,-00.2353,+00.1986,-00.5742,+09.793,+00.590,+00.240,-00.000384,-00.006525,-00.003575,"$VNYMR,-090.355,+086.239,-113.306,-00.2353,+00.1986,-00.5742,+09.793,+00.590,+00.240,-00.000384,-00.006525,-00.003575*66
"
1712236685.5936193,-090.196,+086.241,-113.148,-00.2332,+00.1950,-00.5900,+09.811,+00.577,+00.268,-00.001306,-00.005108,-00.003764,"$VNYMR,-090.196,+086.241,-113.148,-00.2332,+00.1950,-00.5900,+09.811,+00.577,+00.268,-00.001306,-00.005108,-00.003764*6F
"
1712236685.6194482,-090.095,+086.241,-113.045,-00.2329,+00.2092,-00.5782,+09.766,+00.585,+00.295,+00.000261,-00.006147,-00.002332,"$VNYMR,-090.095,+086.241,-113.045,-00.2329,+00.2092,-00.5782,+09.766,+00.585,+00.295,+00.000261,-00.006147,-00.002332*62
"
1712236685.645324,-089.966,+086.242,-112.918,-00.2339,+00.2151,-00.5836,+09.803,+00.552,+00.292,-00.000356,-00.004879,-00.003499,"$VNYMR,-089.966,+086.242,-112.918,-00.2339,+00.2151,-00.5836,+09.803,+00.552,+00.292,-00.000356,-00.004879,-00.003499*60
"
1712236685.6685946,-089.867,+086.242,-112.821,-00.2329,+00.2068,-00.5835,+09.793,+00.561,+00.275,-00.000589,-00.005401,-00.002683,"$VNYMR,-089.867,+086.242,-112.821,-00.2329,+00.2068,-00.5835,+09.793,+00.561,+00.275,-00.000589,-00.005401,-00.002683*63
"
1712236685.695944,-089.787,+086.244,-112.739,-00.2331,+00.1997,-00.5807,+09.784,+00.581,+00.279,-00.000973,-00.004252,-00.000225,"$VNYMR,-089.787,+086.244,-112.739,-00.2331,+00.1997,-00.5807,+09.784,+00.581,+00.279,-00.000973,-00.004252,-00.000225*66
"
1712236685.7178936,-089.728,+086.246,-112.681,-00.2308,+00.2033,-00.5806,+09.803,+00.569,+00.232,-00.001057,-00.005215,+00.000319,"$VNYMR,-089.728,+086.246,-112.681,-00.2308,+00.2033,-00.5806,+09.803,+00.569,+00.232,-00.001057,-00.005215,+00.000319*61
"
1712236685.7433374,-089.689,+086.249,-112.642,-00.2331,+00.1974,-00.5820,+09.777,+00.555,+00.297,+00.000115,-00.003152,+00.002264,"$VNYMR,-089.689,+086.249,-112.642,-00.2331,+00.1974,-00.5820,+09.777,+00.555,+00.297,+00.000115,-00.003152,+00.002264*6F
"
1712236685.7678099,-089.671,+086.253,-112.624,-00.2351,+00.2069,-00.5769,+09.780,+00.567,+00.294,+00.000791,-00.002386,+00.001016,"$VNYMR,-089.671,+086.253,-112.624,-00.2351,+00.2069,-00.5769,+09.780,+00.567,+00.294,+00.000791,-00.002386,+00.001016*6F
"
1712236685.7930095,-089.631,+086.257,-112.588,-00.2351,+00.2116,-00.5770,+09.789,+00.561,+00.294,+00.000202,-00.001240,+00.000765,"$VNYMR,-089.631,+086.257,-112.588,-00.2351,+00.2116,-00.5770,+09.789,+00.561,+00.294,+00.000202,-00.001240,+00.000765*61
"
1712236685.8196995,-089.598,+086.262,-112.556,-00.2351,+00.2069,-00.5849,+09.772,+00.549,+00.255,+00.001620,-00.001207,+00.002135,"$VNYMR,-089.598,+086.262,-112.556,-00.2351,+00.2069,-00.5849,+09.772,+00.549,+00.255,+00.001620,-00.001207,+00.002135*6C
"
1712236685.8427713,-089.622,+086.268,-112.583,-00.2319,+00.2045,-00.5821,+09.792,+00.557,+00.293,+00.000319,+00.000743,+00.003585,"$VNYMR,-089.622,+086.268,-112.583,-00.2319,+00.2045,-00.5821,+09.792,+00.557,+00.293,+00.000319,+00.000743,+00.003585*69
"
1712236685.867793,-089.687,+086.272,-112.646,-00.2353,+00.1998,-00.5662,+09.791,+00.568,+00.276,+00.000052,+00.001214,+00.004122,"$VNYMR,-089.687,+086.272,-112.646,-00.2353,+00.1998,-00.5662,+09.791,+00.568,+00.276,+00.000052,+00.001214,+00.004122*6A
"
1712236685.8929074,-089.759,+086.278,-112.716,-00.2318,+00.2068,-00.5781,+09.808,+00.557,+00.256,+00.000318,+00.002090,+00.005242,"$VNYMR,-089.759,+086.278,-112.716,-00.2318,+00.2068,-00.5781,+09.808,+00.557,+00.256,+00.000318,+00.002090,+00.005242*65
"
1712236685.9177315,-089.899,+086.284,-112.856,-00.2330,+00.2021,-00.5727,+09.794,+00.545,+00.280,-00.000057,+00.002572,+00.004472,"$VNYMR,-089.899,+086.284,-112.856,-00.2330,+00.2021,-00.5727,+09.794,+00.545,+00.280,-00.000057,+00.002572,+00.004472*64
"
1712236685.946679,-090.017,+086.290,-112.975,-00.2350,+00.2163,-00.5837,+09.777,+00.557,+00.293,+00.000134,+00.001513,+00.004292,"$VNYMR,-090.017,+086.290,-112.975,-00.2350,+00.2163,-00.5837,+09.777,+00.557,+00.293,+00.000134,+00.001513,+00.004292*6A
"
1712236685.9701903,-090.179,+086.295,-113.135,-00.2327,+00.2187,-00.5823,+09.793,+00.593,+00.278,-00.000563,+00.004278,+00.006177,"$VNYMR,-090.179,+086.295,-113.135,-00.2327,+00.2187,-00.5823,+09.793,+00.593,+00.278,-00.000563,+00.004278,+00.006177*66
"
1712236685.992951,-090.342,+086.302,-113.299,-00.2296,+00.2080,-00.5820,+09.789,+00.571,+00.281,-00.000415,+00.002883,+00.006974,"$VNYMR,-090.342,+086.302,-113.299,-00.2296,+00.2080,-00.5820,+09.789,+00.571,+00.281,-00.000415,+00.002883,+00.006974*6A
"
1712236686.0204127,-090.505,+086.309,-113.465,-00.2331,+00.1986,-00.5700,+09.782,+00.572,+00.277,+00.000287,+00.004223,+00.007607,"$VNYMR,-090.505,+086.309,-113.465,-00.2331,+00.1986,-00.5700,+09.782,+00.572,+00.277,+00.000287,+00.004223,+00.007607*6A
"
1712236686.0460737,-090.672,+086.316,-113.629,-00.2320,+00.1997,-00.5887,+09.795,+00.563,+00.317,+00.001510,+00.005954,+00.007073,"$VNYMR,-090.672,+086.316,-113.629,-00.2320,+00.1997,-00.5887,+09.795,+00.563,+00.317,+00.001510,+00.005954,+00.007073*6B
"
1712236686.067483,-090.913,+086.321,-113.866,-00.2353,+00.2010,-00.5809,+09.799,+00.553,+00.246,+00.000803,+00.006885,+00.007340,"$VNYMR,-090.913,+086.321,-113.866,-00.2353,+00.2010,-00.5809,+09.799,+00.553,+00.246,+00.000803,+00.006885,+00.007340*6C
"
1712236686.0925999,-091.133,+086.327,-114.083,-00.2327,+00.2198,-00.5756,+09.780,+00.576,+00.246,+00.000558,+00.006062,+00.007149,"$VNYMR,-091.133,+086.327,-114.083,-00.2327,+00.2198,-00.5756,+09.780,+00.576,+00.246,+00.000558,+00.006062,+00.007149*64
"
1712236686.1195211,-091.352,+086.334,-114.298,-00.2296,+00.2068,-00.5846,+09.801,+00.550,+00.270,+00.000763,+00.008589,+00.007463,"$VNYMR,-091.352,+086.334,-114.298,-00.2296,+00.2068,-00.5846,+09.801,+00.550,+00.270,+00.000763,+00.008589,+00.007463*6E
"
1712236686.1426458,-091.594,+086.340,-114.542,-00.2319,+00.2021,-00.5820,+09.749,+00.547,+00.278,+00.001403,+00.008222,+00.008172,"$VNYMR,-091.594,+086.340,-114.542,-00.2319,+00.2021,-00.5820,+09.749,+00.547,+00.278,+00.001403,+00.008222,+00.008172*6F
"
1712236686.1675048,-091.866,+086.345,-114.814,-00.2330,+00.2033,-00.5674,+09.829,+00.567,+00.268,+00.001027,+00.008216,+00.008606,"$VNYMR,-091.866,+086.345,-114.814,-00.2330,+00.2033,-00.5674,+09.829,+00.567,+00.268,+00.001027,+00.008216,+00.008606*68
"
1712236686.1925976,-092.145,+086.351,-115.093,-00.2309,+00.1973,-00.5833,+09.740,+00.556,+00.311,+00.001039,+00.009345,+00.009379,"$VNYMR,-092.145,+086.351,-115.093,-00.2309,+00.1973,-00.5833,+09.740,+00.556,+00.311,+00.001039,+00.009345,+00.009379*61
"
1712236686.2207782,-092.429,+086.356,-115.374,-00.2330,+00.2033,-00.5781,+09.822,+00.541,+00.300,+00.001170,+00.011765,+00.007406,"$VNYMR,-092.429,+086.356,-115.374,-00.2330,+00.2033,-00.5781,+09.822,+00.541,+00.300,+00.001170,+00.011765,+00.007406*6E
"
1712236686.2426803,-092.702,+086.361,-115.646,-00.2328,+00.2116,-00.5809,+09.743,+00.558,+00.277,+00.000855,+00.011033,+00.008686,"$VNYMR,-092.702,+086.361,-115.646,-00.2328,+00.2116,-00.5809,+09.743,+00.558,+00.277,+00.000855,+00.011033,+00.008686*6B
"
1712236686.2674603,-093.050,+086.365,-115.993,-00.2318,+00.2092,-00.5861,+09.817,+00.547,+00.273,+00.002358,+00.009519,+00.010260,"$VNYMR,-093.050,+086.365,-115.993,-00.2318,+00.2092,-00.5861,+09.817,+00.547,+00.273,+00.002358,+00.009519,+00.010260*68
"
1712236686.2923038,-093.313,+086.371,-116.254,-00.2341,+00.2021,-00.5848,+09.735,+00.562,+00.257,+00.000424,+00.008773,+00.008874,"$VNYMR,-093.313,+086.371,-116.254,-00.2341,+00.2021,-00.5848,+09.735,+00.562,+00.257,+00.000424,+00.008773,+00.008874*6C
"
1712236686.3193567,-093.593,+086.376,-116.535,-00.2353,+00.1998,-00.5715,+09.852,+00.550,+00.284,-00.000163,+00.008865,+00.008728,"$VNYMR,-093.593,+086.376,-116.535,-00.2353,+00.1998,-00.5715,+09.852,+00.550,+00.284,-00.000163,+00.008865,+00.008728*66
"
1712236686.3441792,-093.903,+086.380,-116.842,-00.2286,+00.2020,-00.5885,+09.757,+00.569,+00.311,+00.002657,+00.009394,+00.007923,"$VNYMR,-093.903,+086.380,-116.842,-00.2286,+00.2020,-00.5885,+09.757,+00.569,+00.311,+00.002657,+00.009394,+00.007923*66
"
1712236686.3673778,-094.216,+086.384,-117.153,-00.2330,+00.2033,-00.5781,+09.817,+00.555,+00.308,+00.003143,+00.010978,+00.009408,"$VNYMR,-094.216,+086.384,-117.153,-00.2330,+00.2033,-00.5781,+09.817,+00.555,+00.308,+00.003143,+00.010978,+00.009408*62
"
1712236686.3947861,-094.485,+086.388,-117.418,-00.2317,+00.2104,-00.5781,+09.784,+00.551,+00.281,+00.002048,+00.009396,+00.008164,"$VNYMR,-094.485,+086.388,-117.418,-00.2317,+00.2104,-00.5781,+09.784,+00.551,+00.281,+00.002048,+00.009396,+00.008164*6E
"
1712236686.417749,-094.719,+086.392,-117.653,-00.2295,+00.2103,-00.5887,+09.771,+00.553,+00.246,+00.001187,+00.012418,+00.007338,"$VNYMR,-094.719,+086.392,-117.653,-00.2295,+00.2103,-00.5887,+09.771,+00.553,+00.246,+00.001187,+00.012418,+00.007338*66
"
1712236686.442288,-095.003,+086.394,-117.935,-00.2306,+00.2139,-00.5848,+09.791,+00.561,+00.324,+00.000866,+00.009459,+00.008331,"$VNYMR,-095.003,+086.394,-117.935,-00.2306,+00.2139,-00.5848,+09.791,+00.561,+00.324,+00.000866,+00.009459,+00.008331*67
"
1712236686.4688377,-095.312,+086.396,-118.243,-00.2342,+00.2010,-00.5741,+09.792,+00.553,+00.286,+00.002617,+00.009861,+00.007569,"$VNYMR,-095.312,+086.396,-118.243,-00.2342,+00.2010,-00.5741,+09.792,+00.553,+00.286,+00.002617,+00.009861,+00.007569*6D
"
1712236686.4921355,-095.579,+086.398,-118.510,-00.2308,+00.2033,-00.5887,+09.793,+00.572,+00.289,+00.001399,+00.011571,+00.005712,"$VNYMR,-095.579,+086.398,-118.510,-00.2308,+00.2033,-00.5887,+09.793,+00.572,+00.289,+00.001399,+00.011571,+00.005712*67
"
1712236686.5170033,-095.830,+086.397,-118.755,-00.2341,+00.2033,-00.5848,+09.781,+00.574,+00.237,+00.001210,+00.012205,+00.004976,"$VNYMR,-095.830,+086.397,-118.755,-00.2341,+00.2033,-00.5848,+09.781,+00.574,+00.237,+00.001210,+00.012205,+00.004976*6F
"
1712236686.5421546,-096.088,+086.398,-119.009,-00.2340,+00.2104,-00.5782,+09.821,+00.542,+00.238,+00.002759,+00.011133,+00.006242,"$VNYMR,-096.088,+086.398,-119.009,-00.2340,+00.2104,-00.5782,+09.821,+00.542,+00.238,+00.002759,+00.011133,+00.006242*65
"
1712236686.5670447,-096.370,+086.397,-119.288,-00.2306,+00.2103,-00.5887,+09.783,+00.573,+00.280,+00.000377,+00.009916,+00.005589,"$VNYMR,-096.370,+086.397,-119.288,-00.2306,+00.2103,-00.5887,+09.783,+00.573,+00.280,+00.000377,+00.009916,+00.005589*63
"
1712236686.592105,-096.614,+086.395,-119.531,-00.2318,+00.2068,-00.5847,+09.811,+00.547,+00.311,+00.002271,+00.008006,+00.004241,"$VNYMR,-096.614,+086.395,-119.531,-00.2318,+00.2068,-00.5847,+09.811,+00.547,+00.311,+00.002271,+00.008006,+00.004241*68
"
1712236686.6172667,-096.841,+086.394,-119.756,-00.2331,+00.1997,-00.5741,+09.788,+00.567,+00.282,+00.002190,+00.007267,+00.004795,"$VNYMR,-096.841,+086.394,-119.756,-00.2331,+00.1997,-00.5741,+09.788,+00.567,+00.282,+00.002190,+00.007267,+00.004795*60
"
1712236686.6448596,-097.059,+086.392,-119.970,-00.2308,+00.2033,-00.5873,+09.794,+00.544,+00.281,+00.000630,+00.009071,+00.003391,"$VNYMR,-097.059,+086.392,-119.970,-00.2308,+00.2033,-00.5873,+09.794,+00.544,+00.281,+00.000630,+00.009071,+00.003391*60
"
1712236686.6672227,-097.248,+086.389,-120.159,-00.2305,+00.2151,-00.5834,+09.800,+00.547,+00.266,+00.000729,+00.007896,+00.002683,"$VNYMR,-097.248,+086.389,-120.159,-00.2305,+00.2151,-00.5834,+09.800,+00.547,+00.266,+00.000729,+00.007896,+00.002683*63
"
1712236686.6921813,-097.374,+086.387,-120.286,-00.2317,+00.2127,-00.5795,+09.789,+00.543,+00.297,+00.001776,+00.006831,+00.000860,"$VNYMR,-097.374,+086.387,-120.286,-00.2317,+00.2127,-00.5795,+09.789,+00.543,+00.297,+00.001776,+00.006831,+00.000860*66
"
1712236686.7194355,-097.513,+086.385,-120.422,-00.2306,+00.2127,-00.5901,+09.778,+00.568,+00.273,+00.000736,+00.006996,+00.001898,"$VNYMR,-097.513,+086.385,-120.422,-00.2306,+00.2127,-00.5901,+09.778,+00.568,+00.273,+00.000736,+00.006996,+00.001898*6A
"
1712236686.7421067,-097.633,+086.382,-120.540,-00.2275,+00.2008,-00.5845,+09.782,+00.547,+00.267,+00.000774,+00.006625,+00.001339,"$VNYMR,-097.633,+086.382,-120.540,-00.2275,+00.2008,-00.5845,+09.782,+00.547,+00.267,+00.000774,+00.006625,+00.001339*6D
"
1712236686.769245,-097.751,+086.378,-120.655,-00.2349,+00.2187,-00.5717,+09.803,+00.562,+00.269,+00.000803,+00.007320,+00.000434,"$VNYMR,-097.751,+086.378,-120.655,-00.2349,+00.2187,-00.5717,+09.803,+00.562,+00.269,+00.000803,+00.007320,+00.000434*60
"
1712236686.792024,-097.868,+086.373,-120.770,-00.2297,+00.1997,-00.5859,+09.785,+00.543,+00.314,+00.000195,+00.004857,-00.000109,"$VNYMR,-097.868,+086.373,-120.770,-00.2297,+00.1997,-00.5859,+09.785,+00.543,+00.314,+00.000195,+00.004857,-00.000109*6F
"
1712236686.8167522,-097.961,+086.366,-120.858,-00.2331,+00.1997,-00.5781,+09.770,+00.560,+00.284,+00.001355,+00.005456,-00.001644,"$VNYMR,-097.961,+086.366,-120.858,-00.2331,+00.1997,-00.5781,+09.770,+00.560,+00.284,+00.001355,+00.005456,-00.001644*6E
"
1712236686.841871,-098.026,+086.360,-120.921,-00.2295,+00.2127,-00.5780,+09.810,+00.527,+00.300,-00.000548,+00.002607,-00.001928,"$VNYMR,-098.026,+086.360,-120.921,-00.2295,+00.2127,-00.5780,+09.810,+00.527,+00.300,-00.000548,+00.002607,-00.001928*62
"
1712236686.8696122,-098.030,+086.356,-120.927,-00.2296,+00.2056,-00.5966,+09.797,+00.556,+00.260,+00.001061,+00.001624,-00.002905,"$VNYMR,-098.030,+086.356,-120.927,-00.2296,+00.2056,-00.5966,+09.797,+00.556,+00.260,+00.001061,+00.001624,-00.002905*62
"
1712236686.8919876,-098.030,+086.351,-120.928,-00.2296,+00.2068,-00.5820,+09.770,+00.556,+00.318,+00.000387,+00.000999,-00.002291,"$VNYMR,-098.030,+086.351,-120.928,-00.2296,+00.2068,-00.5820,+09.770,+00.556,+00.318,+00.000387,+00.000999,-00.002291*67
"
1712236686.9167752,-098.004,+086.346,-120.902,-00.2318,+00.2056,-00.5767,+09.794,+00.573,+00.288,-00.000223,-00.001585,-00.003426,"$VNYMR,-098.004,+086.346,-120.902,-00.2318,+00.2056,-00.5767,+09.794,+00.573,+00.288,-00.000223,-00.001585,-00.003426*69
"
1712236686.941876,-097.908,+086.341,-120.804,-00.2295,+00.2103,-00.5807,+09.812,+00.574,+00.316,+00.000927,-00.000149,-00.005236,"$VNYMR,-097.908,+086.341,-120.804,-00.2295,+00.2103,-00.5807,+09.812,+00.574,+00.316,+00.000927,-00.000149,-00.005236*62
"
1712236686.9668205,-097.859,+086.335,-120.753,-00.2319,+00.2009,-00.5780,+09.804,+00.547,+00.291,-00.000596,-00.000209,-00.004395,"$VNYMR,-097.859,+086.335,-120.753,-00.2319,+00.2009,-00.5780,+09.804,+00.547,+00.291,-00.000596,-00.000209,-00.004395*60
"
1712236686.9940987,-097.746,+086.330,-120.639,-00.2305,+00.2198,-00.5835,+09.797,+00.552,+00.305,-00.000465,+00.000344,-00.005571,"$VNYMR,-097.746,+086.330,-120.639,-00.2305,+00.2198,-00.5835,+09.797,+00.552,+00.305,-00.000465,+00.000344,-00.005571*6F
"
1712236687.0167022,-097.665,+086.324,-120.556,-00.2307,+00.2080,-00.5887,+09.783,+00.536,+00.294,+00.000460,-00.001512,-00.005157,"$VNYMR,-097.665,+086.324,-120.556,-00.2307,+00.2080,-00.5887,+09.783,+00.536,+00.294,+00.000460,-00.001512,-00.005157*6C
"
1712236687.0417182,-097.559,+086.318,-120.450,-00.2328,+00.2151,-00.5916,+09.783,+00.555,+00.273,-00.000249,-00.000049,-00.004821,"$VNYMR,-097.559,+086.318,-120.450,-00.2328,+00.2151,-00.5916,+09.783,+00.555,+00.273,-00.000249,-00.000049,-00.004821*65
"
1712236687.0668528,-097.441,+086.311,-120.338,-00.2329,+00.2080,-00.5755,+09.783,+00.538,+00.280,-00.001367,-00.002896,-00.007061,"$VNYMR,-097.441,+086.311,-120.338,-00.2329,+00.2080,-00.5755,+09.783,+00.538,+00.280,-00.001367,-00.002896,-00.007061*64
"
1712236687.0920122,-097.315,+086.304,-120.212,-00.2297,+00.2032,-00.5899,+09.798,+00.560,+00.317,-00.001492,-00.003878,-00.007665,"$VNYMR,-097.315,+086.304,-120.212,-00.2297,+00.2032,-00.5899,+09.798,+00.560,+00.317,-00.001492,-00.003878,-00.007665*6B
"
1712236687.1187813,-097.145,+086.298,-120.047,-00.2341,+00.2021,-00.5755,+09.787,+00.554,+00.287,-00.000471,-00.006102,-00.007679,"$VNYMR,-097.145,+086.298,-120.047,-00.2341,+00.2021,-00.5755,+09.787,+00.554,+00.287,-00.000471,-00.006102,-00.007679*6C
"
1712236687.1414406,-096.956,+086.293,-119.858,-00.2328,+00.2116,-00.5782,+09.806,+00.577,+00.277,-00.000521,-00.006585,-00.006767,"$VNYMR,-096.956,+086.293,-119.858,-00.2328,+00.2116,-00.5782,+09.806,+00.577,+00.277,-00.000521,-00.006585,-00.006767*68
"
1712236687.1663232,-096.714,+086.286,-119.617,-00.2296,+00.2091,-00.5900,+09.783,+00.569,+00.306,-00.002257,-00.005825,-00.008676,"$VNYMR,-096.714,+086.286,-119.617,-00.2296,+00.2091,-00.5900,+09.783,+00.569,+00.306,-00.002257,-00.005825,-00.008676*6A
"
1712236687.1940122,-096.481,+086.280,-119.386,-00.2308,+00.2033,-00.5847,+09.828,+00.551,+00.313,-00.000698,-00.005996,-00.008464,"$VNYMR,-096.481,+086.280,-119.386,-00.2308,+00.2033,-00.5847,+09.828,+00.551,+00.313,-00.000698,-00.005996,-00.008464*6E
"
1712236687.2178128,-096.242,+086.275,-119.148,-00.2331,+00.1986,-00.5767,+09.739,+00.565,+00.311,-00.000964,-00.006363,-00.007508,"$VNYMR,-096.242,+086.275,-119.148,-00.2331,+00.1986,-00.5767,+09.739,+00.565,+00.311,-00.000964,-00.006363,-00.007508*6F
"
1712236687.2414272,-096.024,+086.267,-118.932,-00.2319,+00.2021,-00.5874,+09.841,+00.569,+00.310,-00.000982,-00.010005,-00.009390,"$VNYMR,-096.024,+086.267,-118.932,-00.2319,+00.2021,-00.5874,+09.841,+00.569,+00.310,-00.000982,-00.010005,-00.009390*62
"
1712236687.2664387,-095.780,+086.261,-118.688,-00.2330,+00.2021,-00.5781,+09.756,+00.544,+00.306,-00.000904,-00.009820,-00.009566,"$VNYMR,-095.780,+086.261,-118.688,-00.2330,+00.2021,-00.5781,+09.756,+00.544,+00.306,-00.000904,-00.009820,-00.009566*69
"
1712236687.2917085,-095.485,+086.257,-118.392,-00.2305,+00.2174,-00.5768,+09.820,+00.561,+00.281,-00.000225,-00.008668,-00.010013,"$VNYMR,-095.485,+086.257,-118.392,-00.2305,+00.2174,-00.5768,+09.820,+00.561,+00.281,-00.000225,-00.008668,-00.010013*67
"
1712236687.3162386,-095.208,+086.252,-118.122,-00.2295,+00.2103,-00.5940,+09.772,+00.559,+00.241,-00.001489,-00.009100,-00.009106,"$VNYMR,-095.208,+086.252,-118.122,-00.2295,+00.2103,-00.5940,+09.772,+00.559,+00.241,-00.001489,-00.009100,-00.009106*6F
"
1712236687.3413749,-094.940,+086.247,-117.855,-00.2297,+00.1997,-00.5819,+09.809,+00.557,+00.288,-00.000917,-00.010073,-00.009362,"$VNYMR,-094.940,+086.247,-117.855,-00.2297,+00.1997,-00.5819,+09.809,+00.557,+00.288,-00.000917,-00.010073,-00.009362*6C
"
1712236687.3662512,-094.662,+086.241,-117.577,-00.2329,+00.2057,-00.5728,+09.769,+00.581,+00.288,+00.000154,-00.009259,-00.009132,"$VNYMR,-094.662,+086.241,-117.577,-00.2329,+00.2057,-00.5728,+09.769,+00.581,+00.288,+00.000154,-00.009259,-00.009132*69
"
1712236687.3913703,-094.357,+086.237,-117.272,-00.2297,+00.2009,-00.5886,+09.803,+00.565,+00.256,-00.000892,-00.009784,-00.008725,"$VNYMR,-094.357,+086.237,-117.272,-00.2297,+00.2009,-00.5886,+09.803,+00.565,+00.256,-00.000892,-00.009784,-00.008725*66
"
1712236687.418972,-094.110,+086.232,-117.027,-00.2329,+00.2092,-00.5742,+09.784,+00.550,+00.296,-00.001051,-00.009179,-00.010012,"$VNYMR,-094.110,+086.232,-117.027,-00.2329,+00.2092,-00.5742,+09.784,+00.550,+00.296,-00.001051,-00.009179,-00.010012*63
"
1712236687.4412796,-093.820,+086.227,-116.742,-00.2351,+00.2104,-00.5863,+09.787,+00.569,+00.323,-00.000809,-00.010463,-00.008339,"$VNYMR,-093.820,+086.227,-116.742,-00.2351,+00.2104,-00.5863,+09.787,+00.569,+00.323,-00.000809,-00.010463,-00.008339*65
"
1712236687.4662087,-093.541,+086.224,-116.466,-00.2318,+00.2068,-00.5847,+09.809,+00.546,+00.277,-00.000863,-00.010876,-00.008566,"$VNYMR,-093.541,+086.224,-116.466,-00.2318,+00.2068,-00.5847,+09.809,+00.546,+00.277,-00.000863,-00.010876,-00.008566*65
"
1712236687.4910667,-093.292,+086.220,-116.218,-00.2308,+00.2033,-00.5833,+09.780,+00.569,+00.256,-00.000081,-00.012015,-00.008832,"$VNYMR,-093.292,+086.220,-116.218,-00.2308,+00.2033,-00.5833,+09.780,+00.569,+00.256,-00.000081,-00.012015,-00.008832*6C
"
1712236687.516056,-092.996,+086.218,-115.924,-00.2341,+00.2021,-00.5781,+09.817,+00.560,+00.279,-00.000134,-00.010990,-00.007725,"$VNYMR,-092.996,+086.218,-115.924,-00.2341,+00.2021,-00.5781,+09.817,+00.560,+00.279,-00.000134,-00.010990,-00.007725*6C
"
1712236687.54092,-092.741,+086.216,-115.669,-00.2298,+00.1973,-00.5845,+09.785,+00.576,+00.280,-00.000212,-00.010292,-00.007560,"$VNYMR,-092.741,+086.216,-115.669,-00.2298,+00.1973,-00.5845,+09.785,+00.576,+00.280,-00.000212,-00.010292,-00.007560*67
"
1712236687.5680325,-092.448,+086.214,-115.374,-00.2364,+00.2010,-00.5862,+09.784,+00.578,+00.303,+00.000176,-00.010593,-00.007632,"$VNYMR,-092.448,+086.214,-115.374,-00.2364,+00.2010,-00.5862,+09.784,+00.578,+00.303,+00.000176,-00.010593,-00.007632*6E
"
1712236687.5909944,-092.197,+086.212,-115.121,-00.2329,+00.2080,-00.5755,+09.817,+00.546,+00.253,-00.000697,-00.010295,-00.006900,"$VNYMR,-092.197,+086.212,-115.121,-00.2329,+00.2080,-00.5755,+09.817,+00.546,+00.253,-00.000697,-00.010295,-00.006900*6A
"
1712236687.6159468,-091.941,+086.211,-114.864,-00.2318,+00.2068,-00.5861,+09.780,+00.568,+00.292,-00.000363,-00.010296,-00.006261,"$VNYMR,-091.941,+086.211,-114.864,-00.2318,+00.2068,-00.5861,+09.780,+00.568,+00.292,-00.000363,-00.010296,-00.006261*6D
"
1712236687.6409056,-091.713,+086.210,-114.636,-00.2318,+00.2056,-00.5887,+09.791,+00.556,+00.288,-00.001175,-00.009285,-00.006179,"$VNYMR,-091.713,+086.210,-114.636,-00.2318,+00.2056,-00.5887,+09.791,+00.556,+00.288,-00.001175,-00.009285,-00.006179*6B
"
1712236687.665819,-091.485,+086.209,-114.409,-00.2342,+00.1974,-00.5714,+09.798,+00.557,+00.307,-00.001869,-00.009415,-00.006078,"$VNYMR,-091.485,+086.209,-114.409,-00.2342,+00.1974,-00.5714,+09.798,+00.557,+00.307,-00.001869,-00.009415,-00.006078*64
"
1712236687.691242,-091.287,+086.209,-114.210,-00.2320,+00.1974,-00.5833,+09.780,+00.575,+00.294,-00.001134,-00.009410,-00.004595,"$VNYMR,-091.287,+086.209,-114.210,-00.2320,+00.1974,-00.5833,+09.780,+00.575,+00.294,-00.001134,-00.009410,-00.004595*62
"
1712236687.716171,-091.097,+086.209,-114.020,-00.2319,+00.2033,-00.5754,+09.801,+00.578,+00.292,-00.001547,-00.009065,-00.004542,"$VNYMR,-091.097,+086.209,-114.020,-00.2319,+00.2033,-00.5754,+09.801,+00.578,+00.292,-00.001547,-00.009065,-00.004542*6C
"
1712236687.7435944,-090.950,+086.208,-113.873,-00.2328,+00.2139,-00.5795,+09.813,+00.554,+00.306,+00.000388,-00.010368,-00.003559,"$VNYMR,-090.950,+086.208,-113.873,-00.2328,+00.2139,-00.5795,+09.813,+00.554,+00.306,+00.000388,-00.010368,-00.003559*6B
"
1712236687.765789,-090.757,+086.210,-113.678,-00.2350,+00.2128,-00.5823,+09.779,+00.561,+00.283,-00.000596,-00.009402,-00.002386,"$VNYMR,-090.757,+086.210,-113.678,-00.2350,+00.2128,-00.5823,+09.779,+00.561,+00.283,-00.000596,-00.009402,-00.002386*63
"
1712236687.7931218,-090.587,+086.213,-113.510,-00.2307,+00.2056,-00.5807,+09.783,+00.559,+00.235,-00.000330,-00.008470,-00.001264,"$VNYMR,-090.587,+086.213,-113.510,-00.2307,+00.2056,-00.5807,+09.783,+00.559,+00.235,-00.000330,-00.008470,-00.001264*6D
"
1712236687.8161142,-090.411,+086.216,-113.334,-00.2343,+00.1950,-00.5767,+09.780,+00.570,+00.257,+00.000613,-00.007815,-00.001852,"$VNYMR,-090.411,+086.216,-113.334,-00.2343,+00.1950,-00.5767,+09.780,+00.570,+00.257,+00.000613,-00.007815,-00.001852*62
"
1712236687.842669,-090.256,+086.220,-113.176,-00.2309,+00.1985,-00.5806,+09.787,+00.558,+00.251,-00.000728,-00.008189,-00.000964,"$VNYMR,-090.256,+086.220,-113.176,-00.2309,+00.1985,-00.5806,+09.787,+00.558,+00.251,-00.000728,-00.008189,-00.000964*6A
"
1712236687.8656049,-090.124,+086.224,-113.044,-00.2320,+00.1974,-00.5740,+09.787,+00.584,+00.271,+00.000092,-00.004573,+00.000777,"$VNYMR,-090.124,+086.224,-113.044,-00.2320,+00.1974,-00.5740,+09.787,+00.584,+00.271,+00.000092,-00.004573,+00.000777*64
"
1712236687.890637,-089.977,+086.229,-112.897,-00.2350,+00.2128,-00.5730,+09.769,+00.567,+00.269,-00.000598,-00.005962,+00.001026,"$VNYMR,-089.977,+086.229,-112.897,-00.2350,+00.2128,-00.5730,+09.769,+00.567,+00.269,-00.000598,-00.005962,+00.001026*68
"
1712236687.9158502,-089.899,+086.234,-112.821,-00.2340,+00.2080,-00.5822,+09.773,+00.565,+00.276,-00.001861,-00.006350,+00.000854,"$VNYMR,-089.899,+086.234,-112.821,-00.2340,+00.2080,-00.5822,+09.773,+00.565,+00.276,-00.001861,-00.006350,+00.000854*6F
"
1712236687.9407856,-089.850,+086.240,-112.769,-00.2308,+00.1997,-00.5806,+09.788,+00.573,+00.266,+00.000422,-00.002917,+00.001544,"$VNYMR,-089.850,+086.240,-112.769,-00.2308,+00.1997,-00.5806,+09.788,+00.573,+00.266,+00.000422,-00.002917,+00.001544*62
"
1712236687.9680011,-089.822,+086.246,-112.742,-00.2342,+00.1974,-00.5741,+09.783,+00.562,+00.271,-00.000277,-00.003611,+00.003798,"$VNYMR,-089.822,+086.246,-112.742,-00.2342,+00.1974,-00.5741,+09.783,+00.562,+00.271,-00.000277,-00.003611,+00.003798*63
"
1712236687.990642,-089.807,+086.253,-112.728,-00.2309,+00.1962,-00.5859,+09.796,+00.580,+00.307,-00.000695,-00.001885,+00.003872,"$VNYMR,-089.807,+086.253,-112.728,-00.2309,+00.1962,-00.5859,+09.796,+00.580,+00.307,-00.000695,-00.001885,+00.003872*68
"
1712236688.0160851,-089.801,+086.259,-112.724,-00.2339,+00.2140,-00.5743,+09.778,+00.559,+00.309,-00.000258,-00.000200,+00.003871,"$VNYMR,-089.801,+086.259,-112.724,-00.2339,+00.2140,-00.5743,+09.778,+00.559,+00.309,-00.000258,-00.000200,+00.003871*6E
"
1712236688.0405483,-089.793,+086.265,-112.721,-00.2328,+00.2116,-00.5742,+09.802,+00.580,+00.302,-00.000920,-00.000793,+00.003213,"$VNYMR,-089.793,+086.265,-112.721,-00.2328,+00.2116,-00.5742,+09.802,+00.580,+00.302,-00.000920,-00.000793,+00.003213*6A
"
1712236688.0652952,-089.836,+086.273,-112.764,-00.2317,+00.2139,-00.5822,+09.800,+00.555,+00.281,-00.001081,-00.000081,+00.005570,"$VNYMR,-089.836,+086.273,-112.764,-00.2317,+00.2139,-00.5822,+09.800,+00.555,+00.281,-00.001081,-00.000081,+00.005570*67
"
1712236688.090459,-089.940,+086.282,-112.869,-00.2296,+00.2056,-00.5793,+09.783,+00.544,+00.284,+00.000532,-00.001992,+00.006661,"$VNYMR,-089.940,+086.282,-112.869,-00.2296,+00.2056,-00.5793,+09.783,+00.544,+00.284,+00.000532,-00.001992,+00.006661*6F
"
1712236688.1153457,-090.017,+086.289,-112.947,-00.2319,+00.2021,-00.5673,+09.814,+00.568,+00.310,+00.000208,-00.000659,+00.006319,"$VNYMR,-090.017,+086.289,-112.947,-00.2319,+00.2021,-00.5673,+09.814,+00.568,+00.310,+00.000208,-00.000659,+00.006319*6D
"
1712236688.1405287,-090.178,+086.297,-113.106,-00.2297,+00.2009,-00.5806,+09.777,+00.576,+00.320,-00.000087,+00.000806,+00.006666,"$VNYMR,-090.178,+086.297,-113.106,-00.2297,+00.2009,-00.5806,+09.777,+00.576,+00.320,-00.000087,+00.000806,+00.006666*6D
"
1712236688.16567,-090.297,+086.306,-113.223,-00.2331,+00.1998,-00.5821,+09.794,+00.552,+00.281,+00.000460,+00.002331,+00.007499,"$VNYMR,-090.297,+086.306,-113.223,-00.2331,+00.1998,-00.5821,+09.794,+00.552,+00.281,+00.000460,+00.002331,+00.007499*6C
"
1712236688.1915338,-090.434,+086.315,-113.355,-00.2329,+00.2092,-00.5728,+09.773,+00.556,+00.270,-00.000001,+00.002396,+00.007750,"$VNYMR,-090.434,+086.315,-113.355,-00.2329,+00.2092,-00.5728,+09.773,+00.556,+00.270,-00.000001,+00.002396,+00.007750*63
"
1712236688.2181215,-090.600,+086.324,-113.522,-00.2317,+00.2104,-00.5888,+09.792,+00.563,+00.269,+00.000525,+00.005326,+00.007357,"$VNYMR,-090.600,+086.324,-113.522,-00.2317,+00.2104,-00.5888,+09.792,+00.563,+00.269,+00.000525,+00.005326,+00.007357*6F
"
1712236688.2414975,-090.762,+086.333,-113.686,-00.2318,+00.2056,-00.5807,+09.774,+00.589,+00.311,+00.000698,+00.003803,+00.007896,"$VNYMR,-090.762,+086.333,-113.686,-00.2318,+00.2056,-00.5807,+09.774,+00.589,+00.311,+00.000698,+00.003803,+00.007896*64
"
1712236688.2653232,-090.921,+086.341,-113.847,-00.2330,+00.2009,-00.5754,+09.780,+00.561,+00.257,-00.000492,+00.005001,+00.007686,"$VNYMR,-090.921,+086.341,-113.847,-00.2330,+00.2009,-00.5754,+09.780,+00.561,+00.257,-00.000492,+00.005001,+00.007686*61
"
1712236688.2912834,-091.139,+086.348,-114.062,-00.2308,+00.2009,-00.5820,+09.789,+00.563,+00.277,+00.001053,+00.006184,+00.009603,"$VNYMR,-091.139,+086.348,-114.062,-00.2308,+00.2009,-00.5820,+09.789,+00.563,+00.277,+00.001053,+00.006184,+00.009603*6C
"
1712236688.3180852,-091.312,+086.357,-114.237,-00.2341,+00.2033,-00.5715,+09.797,+00.558,+00.268,-00.000193,+00.006499,+00.009128,"$VNYMR,-091.312,+086.357,-114.237,-00.2341,+00.2033,-00.5715,+09.797,+00.558,+00.268,-00.000193,+00.006499,+00.009128*62
"
1712236688.3434808,-091.535,+086.366,-114.459,-00.2318,+00.2092,-00.5741,+09.762,+00.564,+00.250,+00.000948,+00.006650,+00.008301,"$VNYMR,-091.535,+086.366,-114.459,-00.2318,+00.2092,-00.5741,+09.762,+00.564,+00.250,+00.000948,+00.006650,+00.008301*62
"
1712236688.3662057,-091.773,+086.375,-114.696,-00.2296,+00.2091,-00.5873,+09.768,+00.565,+00.287,+00.000815,+00.005770,+00.009681,"$VNYMR,-091.773,+086.375,-114.696,-00.2296,+00.2091,-00.5873,+09.768,+00.565,+00.287,+00.000815,+00.005770,+00.009681*6F
"
1712236688.3913972,-092.017,+086.385,-114.939,-00.2318,+00.2056,-00.5887,+09.817,+00.556,+00.264,+00.001292,+00.006093,+00.009603,"$VNYMR,-092.017,+086.385,-114.939,-00.2318,+00.2056,-00.5887,+09.817,+00.556,+00.264,+00.001292,+00.006093,+00.009603*66
"
1712236688.414938,-092.237,+086.393,-115.160,-00.2375,+00.1986,-00.5716,+09.779,+00.549,+00.264,+00.001545,+00.006795,+00.009674,"$VNYMR,-092.237,+086.393,-115.160,-00.2375,+00.1986,-00.5716,+09.779,+00.549,+00.264,+00.001545,+00.006795,+00.009674*6A
"
1712236688.4411664,-092.495,+086.399,-115.415,-00.2297,+00.2032,-00.5833,+09.789,+00.563,+00.263,+00.000921,+00.007626,+00.008806,"$VNYMR,-092.495,+086.399,-115.415,-00.2297,+00.2032,-00.5833,+09.789,+00.563,+00.263,+00.000921,+00.007626,+00.008806*64
"
1712236688.4649386,-092.815,+086.402,-115.735,-00.2319,+00.2021,-00.5754,+09.776,+00.544,+00.256,+00.000845,+00.007717,+00.009832,"$VNYMR,-092.815,+086.402,-115.735,-00.2319,+00.2021,-00.5754,+09.776,+00.544,+00.256,+00.000845,+00.007717,+00.009832*6A
"
1712236688.491024,-093.114,+086.408,-116.034,-00.2328,+00.2151,-00.5769,+09.812,+00.571,+00.264,+00.000627,+00.008855,+00.009393,"$VNYMR,-093.114,+086.408,-116.034,-00.2328,+00.2151,-00.5769,+09.812,+00.571,+00.264,+00.000627,+00.008855,+00.009393*60
"
1712236688.5159917,-093.425,+086.413,-116.341,-00.2317,+00.2139,-00.5848,+09.766,+00.538,+00.295,+00.001134,+00.009641,+00.008731,"$VNYMR,-093.425,+086.413,-116.341,-00.2317,+00.2139,-00.5848,+09.766,+00.538,+00.295,+00.001134,+00.009641,+00.008731*6E
"
1712236688.5409145,-093.732,+086.417,-116.645,-00.2264,+00.2020,-00.5817,+09.793,+00.540,+00.307,+00.000894,+00.009919,+00.009356,"$VNYMR,-093.732,+086.417,-116.645,-00.2264,+00.2020,-00.5817,+09.793,+00.540,+00.307,+00.000894,+00.009919,+00.009356*63
"
1712236688.565822,-094.006,+086.420,-116.919,-00.2317,+00.2139,-00.5701,+09.784,+00.556,+00.313,+00.002031,+00.010076,+00.008253,"$VNYMR,-094.006,+086.420,-116.919,-00.2317,+00.2139,-00.5701,+09.784,+00.556,+00.313,+00.002031,+00.010076,+00.008253*6E
"
1712236688.591079,-094.289,+086.424,-117.199,-00.2274,+00.2079,-00.5832,+09.795,+00.562,+00.289,+00.001598,+00.009820,+00.007825,"$VNYMR,-094.289,+086.424,-117.199,-00.2274,+00.2079,-00.5832,+09.795,+00.562,+00.289,+00.001598,+00.009820,+00.007825*67
"
1712236688.6179,-094.578,+086.428,-117.483,-00.2307,+00.2068,-00.5820,+09.779,+00.586,+00.309,+00.002037,+00.010446,+00.008293,"$VNYMR,-094.578,+086.428,-117.483,-00.2307,+00.2068,-00.5820,+09.779,+00.586,+00.309,+00.002037,+00.010446,+00.008293*64
"
1712236688.6412148,-094.893,+086.427,-117.795,-00.2294,+00.2186,-00.5781,+09.791,+00.569,+00.272,+00.001603,+00.009239,+00.006514,"$VNYMR,-094.893,+086.427,-117.795,-00.2294,+00.2186,-00.5781,+09.791,+00.569,+00.272,+00.001603,+00.009239,+00.006514*61
"
1712236688.6692057,-095.176,+086.429,-118.078,-00.2274,+00.2067,-00.5872,+09.795,+00.559,+00.288,+00.001836,+00.010247,+00.007892,"$VNYMR,-095.176,+086.429,-118.078,-00.2274,+00.2067,-00.5872,+09.795,+00.559,+00.288,+00.001836,+00.010247,+00.007892*6D
"
1712236688.6937473,-095.440,+086.428,-118.340,-00.2286,+00.2032,-00.5845,+09.806,+00.559,+00.313,+00.002055,+00.009413,+00.006987,"$VNYMR,-095.440,+086.428,-118.340,-00.2286,+00.2032,-00.5845,+09.806,+00.559,+00.313,+00.002055,+00.009413,+00.006987*6E
"
1712236688.7160094,-095.689,+086.428,-118.586,-00.2308,+00.2021,-00.5686,+09.791,+00.550,+00.274,+00.003315,+00.009347,+00.003952,"$VNYMR,-095.689,+086.428,-118.586,-00.2308,+00.2021,-00.5686,+09.791,+00.550,+00.274,+00.003315,+00.009347,+00.003952*64
"
1712236688.7408617,-095.906,+086.427,-118.803,-00.2297,+00.2009,-00.5832,+09.784,+00.565,+00.299,+00.001581,+00.009220,+00.004589,"$VNYMR,-095.906,+086.427,-118.803,-00.2297,+00.2009,-00.5832,+09.784,+00.565,+00.299,+00.001581,+00.009220,+00.004589*6A
"
1712236688.767991,-096.152,+086.425,-119.045,-00.2308,+00.2044,-00.5793,+09.790,+00.546,+00.266,+00.000380,+00.009590,+00.004271,"$VNYMR,-096.152,+086.425,-119.045,-00.2308,+00.2044,-00.5793,+09.790,+00.546,+00.266,+00.000380,+00.009590,+00.004271*6D
"
1712236688.7910345,-096.399,+086.423,-119.292,-00.2295,+00.2139,-00.5754,+09.792,+00.554,+00.292,+00.001619,+00.009675,+00.004093,"$VNYMR,-096.399,+086.423,-119.292,-00.2295,+00.2139,-00.5754,+09.792,+00.554,+00.292,+00.001619,+00.009675,+00.004093*6B
"
1712236688.815613,-096.615,+086.420,-119.506,-00.2317,+00.2151,-00.5875,+09.813,+00.518,+00.336,+00.001776,+00.009850,+00.003061,"$VNYMR,-096.615,+086.420,-119.506,-00.2317,+00.2151,-00.5875,+09.813,+00.518,+00.336,+00.001776,+00.009850,+00.003061*60
"
1712236688.8407087,-096.793,+086.417,-119.682,-00.2286,+00.1997,-00.5818,+09.791,+00.552,+00.307,+00.001041,+00.007633,+00.002323,"$VNYMR,-096.793,+086.417,-119.682,-00.2286,+00.1997,-00.5818,+09.791,+00.552,+00.307,+00.001041,+00.007633,+00.002323*6C
"
1712236688.8659499,-096.980,+086.414,-119.865,-00.2329,+00.2080,-00.5755,+09.828,+00.567,+00.287,+00.001887,+00.007551,+00.001473,"$VNYMR,-096.980,+086.414,-119.865,-00.2329,+00.2080,-00.5755,+09.828,+00.567,+00.287,+00.001887,+00.007551,+00.001473*6C
"
1712236688.89289,-097.118,+086.411,-120.001,-00.2272,+00.2150,-00.5859,+09.780,+00.563,+00.293,+00.001169,+00.007083,+00.000953,"$VNYMR,-097.118,+086.411,-120.001,-00.2272,+00.2150,-00.5859,+09.780,+00.563,+00.293,+00.001169,+00.007083,+00.000953*60
"
1712236688.917998,-097.270,+086.406,-120.151,-00.2308,+00.2044,-00.5807,+09.804,+00.552,+00.296,+00.001265,+00.007400,+00.000816,"$VNYMR,-097.270,+086.406,-120.151,-00.2308,+00.2044,-00.5807,+09.804,+00.552,+00.296,+00.001265,+00.007400,+00.000816*68
"
1712236688.9408345,-097.395,+086.399,-120.272,-00.2316,+00.2186,-00.5795,+09.794,+00.558,+00.294,+00.000528,+00.007138,+00.000249,"$VNYMR,-097.395,+086.399,-120.272,-00.2316,+00.2186,-00.5795,+09.794,+00.558,+00.294,+00.000528,+00.007138,+00.000249*6A
"
1712236688.966091,-097.491,+086.393,-120.370,-00.2307,+00.2080,-00.5874,+09.783,+00.555,+00.309,+00.001195,+00.006096,-00.001938,"$VNYMR,-097.491,+086.393,-120.370,-00.2307,+00.2080,-00.5874,+09.783,+00.555,+00.309,+00.001195,+00.006096,-00.001938*64
"
1712236688.9906824,-097.568,+086.388,-120.450,-00.2273,+00.2127,-00.5899,+09.789,+00.565,+00.272,+00.000302,+00.004263,-00.001287,"$VNYMR,-097.568,+086.388,-120.450,-00.2273,+00.2127,-00.5899,+09.789,+00.565,+00.272,+00.000302,+00.004263,-00.001287*6D
"
1712236689.0181906,-097.625,+086.381,-120.510,-00.2320,+00.1997,-00.5700,+09.807,+00.557,+00.285,+00.001678,+00.006117,-00.002966,"$VNYMR,-097.625,+086.381,-120.510,-00.2320,+00.1997,-00.5700,+09.807,+00.557,+00.285,+00.001678,+00.006117,-00.002966*6F
"
1712236689.0403967,-097.641,+086.374,-120.524,-00.2295,+00.2127,-00.5860,+09.785,+00.558,+00.281,+00.000404,+00.005528,-00.005101,"$VNYMR,-097.641,+086.374,-120.524,-00.2295,+00.2127,-00.5860,+09.785,+00.558,+00.281,+00.000404,+00.005528,-00.005101*65
"
1712236689.0658777,-097.679,+086.365,-120.562,-00.2308,+00.2044,-00.5847,+09.791,+00.548,+00.271,+00.000050,+00.005312,-00.004639,"$VNYMR,-097.679,+086.365,-120.562,-00.2308,+00.2044,-00.5847,+09.791,+00.548,+00.271,+00.000050,+00.005312,-00.004639*64
"
1712236689.0903013,-097.688,+086.357,-120.571,-00.2305,+00.2163,-00.5821,+09.786,+00.538,+00.264,+00.000088,+00.002212,-00.005250,"$VNYMR,-097.688,+086.357,-120.571,-00.2305,+00.2163,-00.5821,+09.786,+00.538,+00.264,+00.000088,+00.002212,-00.005250*6C
"
1712236689.1151364,-097.689,+086.348,-120.572,-00.2295,+00.2127,-00.5860,+09.799,+00.554,+00.288,-00.000225,+00.004810,-00.005651,"$VNYMR,-097.689,+086.348,-120.572,-00.2295,+00.2127,-00.5860,+09.799,+00.554,+00.288,-00.000225,+00.004810,-00.005651*63
"
1712236689.1403153,-097.667,+086.339,-120.553,-00.2284,+00.2139,-00.5873,+09.800,+00.551,+00.290,+00.000156,+00.000505,-00.005552,"$VNYMR,-097.667,+086.339,-120.553,-00.2284,+00.2139,-00.5873,+09.800,+00.551,+00.290,+00.000156,+00.000505,-00.005552*64
"
1712236689.16695,-097.621,+086.330,-120.509,-00.2319,+00.2009,-00.5727,+09.807,+00.541,+00.277,+00.000457,+00.002333,-00.006013,"$VNYMR,-097.621,+086.330,-120.509,-00.2319,+00.2009,-00.5727,+09.807,+00.541,+00.277,+00.000457,+00.002333,-00.006013*60
"
1712236689.190235,-097.533,+086.322,-120.423,-00.2274,+00.2056,-00.5845,+09.805,+00.560,+00.275,-00.001544,-00.000460,-00.006578,"$VNYMR,-097.533,+086.322,-120.423,-00.2274,+00.2056,-00.5845,+09.805,+00.560,+00.275,-00.001544,-00.000460,-00.006578*6B
"
1712236689.2177246,-097.411,+086.313,-120.304,-00.2318,+00.2056,-00.5861,+09.779,+00.582,+00.281,+00.000110,+00.001859,-00.006789,"$VNYMR,-097.411,+086.313,-120.304,-00.2318,+00.2056,-00.5861,+09.779,+00.582,+00.281,+00.000110,+00.001859,-00.006789*6B
"
1712236689.2401724,-097.257,+086.306,-120.149,-00.2316,+00.2175,-00.5782,+09.817,+00.557,+00.268,-00.000270,-00.002660,-00.008418,"$VNYMR,-097.257,+086.306,-120.149,-00.2316,+00.2175,-00.5782,+09.817,+00.557,+00.268,-00.000270,-00.002660,-00.008418*63
"
1712236689.2651684,-097.114,+086.298,-120.011,-00.2296,+00.2080,-00.5900,+09.783,+00.545,+00.330,-00.000248,-00.001435,-00.008069,"$VNYMR,-097.114,+086.298,-120.011,-00.2296,+00.2080,-00.5900,+09.783,+00.545,+00.330,-00.000248,-00.001435,-00.008069*6E
"
1712236689.2902584,-096.964,+086.288,-119.865,-00.2274,+00.2079,-00.5845,+09.800,+00.547,+00.301,+00.000311,-00.001006,-00.008296,"$VNYMR,-096.964,+086.288,-119.865,-00.2274,+00.2079,-00.5845,+09.800,+00.547,+00.301,+00.000311,-00.001006,-00.008296*63
"
1712236689.3172839,-096.794,+086.280,-119.697,-00.2308,+00.1997,-00.5726,+09.788,+00.561,+00.303,-00.000687,-00.003109,-00.009842,"$VNYMR,-096.794,+086.280,-119.697,-00.2308,+00.1997,-00.5726,+09.788,+00.561,+00.303,-00.000687,-00.003109,-00.009842*68
"
1712236689.342877,-096.606,+086.271,-119.510,-00.2276,+00.1973,-00.5857,+09.829,+00.526,+00.310,-00.000073,-00.003394,-00.009299,"$VNYMR,-096.606,+086.271,-119.510,-00.2276,+00.1973,-00.5857,+09.829,+00.526,+00.310,-00.000073,-00.003394,-00.009299*69
"
1712236689.3653908,-096.415,+086.262,-119.323,-00.2317,+00.2127,-00.5781,+09.785,+00.566,+00.233,-00.000304,-00.003902,-00.009660,"$VNYMR,-096.415,+086.262,-119.323,-00.2317,+00.2127,-00.5781,+09.785,+00.566,+00.233,-00.000304,-00.003902,-00.009660*6C
"
1712236689.3925135,-096.216,+086.254,-119.129,-00.2294,+00.2151,-00.5767,+09.748,+00.571,+00.293,+00.000099,-00.004669,-00.009194,"$VNYMR,-096.216,+086.254,-119.129,-00.2294,+00.2151,-00.5767,+09.748,+00.571,+00.293,+00.000099,-00.004669,-00.009194*62
"
1712236689.415439,-095.994,+086.246,-118.910,-00.2274,+00.2079,-00.5859,+09.785,+00.574,+00.274,-00.000367,-00.005382,-00.008329,"$VNYMR,-095.994,+086.246,-118.910,-00.2274,+00.2079,-00.5859,+09.785,+00.574,+00.274,-00.000367,-00.005382,-00.008329*6A
"
1712236689.4422388,-095.819,+086.237,-118.739,-00.2307,+00.2068,-00.5874,+09.809,+00.551,+00.302,+00.000295,-00.004067,-00.010441,"$VNYMR,-095.819,+086.237,-118.739,-00.2307,+00.2068,-00.5874,+09.809,+00.551,+00.302,+00.000295,-00.004067,-00.010441*68
"
1712236689.4686372,-095.547,+086.231,-118.471,-00.2298,+00.1973,-00.5725,+09.797,+00.555,+00.294,-00.000329,-00.006306,-00.010765,"$VNYMR,-095.547,+086.231,-118.471,-00.2298,+00.1973,-00.5725,+09.797,+00.555,+00.294,-00.000329,-00.006306,-00.010765*6A
"
1712236689.4902275,-095.284,+086.223,-118.211,-00.2286,+00.1997,-00.5832,+09.794,+00.568,+00.264,-00.000806,-00.007433,-00.010388,"$VNYMR,-095.284,+086.223,-118.211,-00.2286,+00.1997,-00.5832,+09.794,+00.568,+00.264,-00.000806,-00.007433,-00.010388*6E
"
1712236689.5149252,-095.051,+086.215,-117.976,-00.2319,+00.2009,-00.5820,+09.766,+00.576,+00.300,+00.000672,-00.007040,-00.009715,"$VNYMR,-095.051,+086.215,-117.976,-00.2319,+00.2009,-00.5820,+09.766,+00.576,+00.300,+00.000672,-00.007040,-00.009715*6F
"
1712236689.5414617,-094.777,+086.209,-117.704,-00.2284,+00.2115,-00.5780,+09.774,+00.539,+00.280,-00.000693,-00.007954,-00.010345,"$VNYMR,-094.777,+086.209,-117.704,-00.2284,+00.2115,-00.5780,+09.774,+00.539,+00.280,-00.000693,-00.007954,-00.010345*6A
"
1712236689.5649767,-094.494,+086.206,-117.423,-00.2285,+00.2056,-00.5859,+09.799,+00.539,+00.320,+00.000156,-00.009469,-00.009640,"$VNYMR,-094.494,+086.206,-117.423,-00.2285,+00.2056,-00.5859,+09.799,+00.539,+00.320,+00.000156,-00.009469,-00.009640*64
"
1712236689.5928373,-094.215,+086.200,-117.144,-00.2308,+00.1997,-00.5859,+09.775,+00.554,+00.273,-00.000098,-00.009746,-00.010545,"$VNYMR,-094.215,+086.200,-117.144,-00.2308,+00.1997,-00.5859,+09.775,+00.554,+00.273,-00.000098,-00.009746,-00.010545*61
"
1712236689.6172583,-093.965,+086.194,-116.891,-00.2308,+00.2033,-00.5700,+09.814,+00.548,+00.280,+00.000657,-00.009127,-00.010255,"$VNYMR,-093.965,+086.194,-116.891,-00.2308,+00.2033,-00.5700,+09.814,+00.548,+00.280,+00.000657,-00.009127,-00.010255*6E
"
1712236689.6399102,-093.705,+086.190,-116.629,-00.2320,+00.1997,-00.5887,+09.807,+00.561,+00.271,-00.001374,-00.008474,-00.009690,"$VNYMR,-093.705,+086.190,-116.629,-00.2320,+00.1997,-00.5887,+09.807,+00.561,+00.271,-00.001374,-00.008474,-00.009690*62
"
1712236689.6649413,-086.688,+086.336,-109.805,-00.2343,+00.1950,-00.5727,+15.801,-19.926,-50.177,-00.465866,-01.194106,-00.106553,"$VNYMR,-086.688,+086.336,-109.805,-00.2343,+00.1950,-00.5727,+15.801,-19.926,-50.177,-00.465866,-01.194106,-00.106553*6C
"
1712236689.6921082,-076.196,+086.178,-098.873,-00.2362,+00.2081,-00.5690,+22.463,+14.784,+26.272,+02.098036,+01.760579,-00.418855,"$VNYMR,-076.196,+086.178,-098.873,-00.2362,+00.2081,-00.5690,+22.463,+14.784,+26.272,+02.098036,+01.760579,-00.418855*6A
"
1712236689.7152803,-098.325,+085.589,-118.570,-00.2341,+00.2057,-00.5942,+00.166,-04.949,+01.728,+01.321526,+00.458435,+00.084651,"$VNYMR,-098.325,+085.589,-118.570,-00.2341,+00.2057,-00.5942,+00.166,-04.949,+01.728,+01.321526,+00.458435,+00.084651*68
"
1712236689.742616,-105.435,+085.643,-123.699,-00.2298,+00.1961,-00.6045,+23.489,+06.049,-00.947,+01.409764,-00.197348,+00.479094,"$VNYMR,-105.435,+085.643,-123.699,-00.2298,+00.1961,-00.6045,+23.489,+06.049,-00.947,+01.409764,-00.197348,+00.479094*60
"
1712236689.7667687,-095.735,+087.084,-112.847,-00.2364,+00.1986,-00.5809,+06.757,+06.203,+04.758,+00.692571,-01.191475,+00.823841,"$VNYMR,-095.735,+087.084,-112.847,-00.2364,+00.1986,-00.5809,+06.757,+06.203,+04.758,+00.692571,-01.191475,+00.823841*60
"
1712236689.7920215,-057.323,+088.585,-073.580,-00.2319,+00.2033,-00.5820,+04.215,+01.142,+02.140,+00.648653,-01.086427,+01.004826,"$VNYMR,-057.323,+088.585,-073.580,-00.2319,+00.2033,-00.5820,+04.215,+01.142,+02.140,+00.648653,-01.086427,+01.004826*63
"
1712236689.8149726,+019.586,+087.757,+004.226,-00.2316,+00.2198,-00.5702,+04.536,+01.817,+03.555,+00.656194,-01.368385,+01.080024,"$VNYMR,+019.586,+087.757,+004.226,-00.2316,+00.2198,-00.5702,+04.536,+01.817,+03.555,+00.656194,-01.368385,+01.080024*6E
"
1712236689.8396266,+037.026,+085.171,+022.429,-00.2312,+00.2411,-00.5504,+20.843,-01.861,+06.135,+00.547876,-01.801085,+01.111406,"$VNYMR,+037.026,+085.171,+022.429,-00.2312,+00.2411,-00.5504,+20.843,-01.861,+06.135,+00.547876,-01.801085,+01.111406*61
"
1712236689.8647244,+037.613,+081.686,+024.163,-00.2288,+00.2470,-00.5397,+21.114,-03.286,-00.784,+00.815156,-02.059139,+00.868616,"$VNYMR,+037.613,+081.686,+024.163,-00.2288,+00.2470,-00.5397,+21.114,-03.286,-00.784,+00.815156,-02.059139,+00.868616*6D
"
1712236689.889562,+036.720,+078.761,+024.549,-00.2244,+00.2480,-00.5101,+07.403,+00.081,-09.620,+00.805535,-01.929492,+00.591391,"$VNYMR,+036.720,+078.761,+024.549,-00.2244,+00.2480,-00.5101,+07.403,+00.081,-09.620,+00.805535,-01.929492,+00.591391*64
"
1712236689.9144678,+035.185,+076.450,+024.085,-00.2254,+00.2540,-00.4902,+03.549,-02.920,-01.952,+00.734401,-01.368269,+00.356524,"$VNYMR,+035.185,+076.450,+024.085,-00.2254,+00.2540,-00.4902,+03.549,-02.920,-01.952,+00.734401,-01.368269,+00.356524*6E
"
1712236689.9395895,+034.217,+074.856,+024.107,-00.2219,+00.2610,-00.4848,+02.483,-00.277,-03.957,+00.609342,-00.972001,+00.259728,"$VNYMR,+034.217,+074.856,+024.107,-00.2219,+00.2610,-00.4848,+02.483,-00.277,-03.957,+00.609342,-00.972001,+00.259728*6D
"
1712236689.966568,+033.716,+073.715,+024.422,-00.2238,+00.2764,-00.4771,+01.823,-00.448,-03.523,+00.546707,-00.569925,+00.231205,"$VNYMR,+033.716,+073.715,+024.422,-00.2238,+00.2764,-00.4771,+01.823,-00.448,-03.523,+00.546707,-00.569925,+00.231205*67
"
1712236689.9895444,+033.897,+073.145,+025.345,-00.2237,+00.2835,-00.4731,+03.342,+00.233,-04.440,+00.513371,-00.185493,+00.209777,"$VNYMR,+033.897,+073.145,+025.345,-00.2237,+00.2835,-00.4731,+03.342,+00.233,-04.440,+00.513371,-00.185493,+00.209777*6C
"
1712236690.0172231,+035.007,+073.084,+027.083,-00.2182,+00.2787,-00.4862,+03.796,+00.285,-03.897,+00.455788,+00.203747,+00.245022,"$VNYMR,+035.007,+073.084,+027.083,-00.2182,+00.2787,-00.4862,+03.796,+00.285,-03.897,+00.455788,+00.203747,+00.245022*60
"
1712236690.041828,+037.168,+073.541,+029.738,-00.2161,+00.2727,-00.4873,+10.622,-00.552,-04.766,+00.370052,+00.657373,+00.221707,"$VNYMR,+037.168,+073.541,+029.738,-00.2161,+00.2727,-00.4873,+10.622,-00.552,-04.766,+00.370052,+00.657373,+00.221707*6D
"
1712236690.0647137,+040.817,+074.364,+033.683,-00.2226,+00.2823,-00.4904,+20.334,+05.265,+00.272,+00.260635,+00.855015,+00.361904,"$VNYMR,+040.817,+074.364,+033.683,-00.2226,+00.2823,-00.4904,+20.334,+05.265,+00.272,+00.260635,+00.855015,+00.361904*69
"
1712236690.08985,+044.847,+074.881,+038.044,-00.2158,+00.2881,-00.5088,+15.253,-00.424,+06.464,+00.414664,+00.630061,+00.384643,"$VNYMR,+044.847,+074.881,+038.044,-00.2158,+00.2881,-00.5088,+15.253,-00.424,+06.464,+00.414664,+00.630061,+00.384643*69
"
1712236690.1142209,+048.037,+074.941,+041.712,-00.2125,+00.2880,-00.5153,+09.067,+02.240,+02.771,+00.450056,+00.209280,+00.411528,"$VNYMR,+048.037,+074.941,+041.712,-00.2125,+00.2880,-00.5153,+09.067,+02.240,+02.771,+00.450056,+00.209280,+00.411528*6B
"
1712236690.139265,+049.892,+074.642,+044.200,-00.2122,+00.3022,-00.5181,+07.073,+00.035,+02.984,+00.496888,-00.011117,+00.379395,"$VNYMR,+049.892,+074.642,+044.200,-00.2122,+00.3022,-00.5181,+07.073,+00.035,+02.984,+00.496888,-00.011117,+00.379395*6E
"
1712236690.1663058,+050.458,+074.095,+045.499,-00.2044,+00.3021,-00.5271,+07.495,-00.082,+04.096,+00.553824,-00.321596,+00.321080,"$VNYMR,+050.458,+074.095,+045.499,-00.2044,+00.3021,-00.5271,+07.495,-00.082,+04.096,+00.553824,-00.321596,+00.321080*6A
"
1712236690.191008,+049.614,+073.298,+045.553,-00.2067,+00.3009,-00.5232,+07.827,-00.731,+02.914,+00.629828,-00.614091,+00.244382,"$VNYMR,+049.614,+073.298,+045.553,-00.2067,+00.3009,-00.5232,+07.827,-00.731,+02.914,+00.629828,-00.614091,+00.244382*64
"
1712236690.2142763,+047.556,+072.298,+044.527,-00.2066,+00.3068,-00.5099,+12.141,+00.252,+04.929,+00.676998,-00.927230,+00.148836,"$VNYMR,+047.556,+072.298,+044.527,-00.2066,+00.3068,-00.5099,+12.141,+00.252,+04.929,+00.676998,-00.927230,+00.148836*67
"
1712236690.2391486,+044.295,+071.104,+042.476,-00.2068,+00.2962,-00.5125,+16.650,-02.708,+01.784,+00.760147,-01.137297,-00.029665,"$VNYMR,+044.295,+071.104,+042.476,-00.2068,+00.2962,-00.5125,+16.650,-02.708,+01.784,+00.760147,-01.137297,-00.029665*60
"
1712236690.2643974,+040.944,+070.098,+040.373,-00.2101,+00.2951,-00.5019,+11.013,+00.516,-04.216,+00.716513,-00.941340,-00.154804,"$VNYMR,+040.944,+070.098,+040.373,-00.2101,+00.2951,-00.5019,+11.013,+00.516,-04.216,+00.716513,-00.941340,-00.154804*61
"
1712236690.2893152,+038.650,+069.494,+039.126,-00.2122,+00.3010,-00.4928,+05.113,-00.315,-03.253,+00.584690,-00.559381,-00.164466,"$VNYMR,+038.650,+069.494,+039.126,-00.2122,+00.3010,-00.4928,+05.113,-00.315,-03.253,+00.584690,-00.559381,-00.164466*6D
"
1712236690.3141158,+037.268,+069.264,+038.633,-00.2089,+00.2998,-00.5006,+03.431,+00.161,-03.506,+00.542066,-00.187647,-00.157196,"$VNYMR,+037.268,+069.264,+038.633,-00.2089,+00.2998,-00.5006,+03.431,+00.161,-03.506,+00.542066,-00.187647,-00.157196*6E
"
1712236690.3396003,+036.814,+069.407,+038.926,-00.2090,+00.2986,-00.5059,+02.723,+00.022,-03.616,+00.476521,+00.154813,-00.146655,"$VNYMR,+036.814,+069.407,+038.926,-00.2090,+00.2986,-00.5059,+02.723,+00.022,-03.616,+00.476521,+00.154813,-00.146655*61
"
1712236690.3666718,+037.276,+069.934,+039.998,-00.2124,+00.2927,-00.4994,+03.318,-00.220,-02.883,+00.425960,+00.482794,-00.154319,"$VNYMR,+037.276,+069.934,+039.998,-00.2124,+00.2927,-00.4994,+03.318,-00.220,-02.883,+00.425960,+00.482794,-00.154319*6C
"
1712236690.390762,+038.645,+070.834,+041.843,-00.2069,+00.2879,-00.5217,+04.849,-00.700,-03.649,+00.358140,+00.828646,-00.192100,"$VNYMR,+038.645,+070.834,+041.843,-00.2069,+00.2879,-00.5217,+04.849,-00.700,-03.649,+00.358140,+00.828646,-00.192100*66
"
1712236690.4141114,+041.100,+072.185,+044.601,-00.2125,+00.2857,-00.5286,+09.752,-01.035,-03.339,+00.259261,+01.210740,-00.302445,"$VNYMR,+041.100,+072.185,+044.601,-00.2125,+00.2857,-00.5286,+09.752,-01.035,-03.339,+00.259261,+01.210740,-00.302445*6D
"
1712236690.440925,+044.524,+073.913,+048.162,-00.2135,+00.2916,-00.5541,+15.701,-00.853,+00.534,+00.166973,+01.353717,-00.458294,"$VNYMR,+044.524,+073.913,+048.162,-00.2135,+00.2916,-00.5541,+15.701,-00.853,+00.534,+00.166973,+01.353717,-00.458294*66
"
1712236690.4671962,+047.769,+075.655,+051.603,-00.2128,+00.2739,-00.5672,+14.240,-00.004,+04.672,+00.261067,+01.126165,-00.585646,"$VNYMR,+047.769,+075.655,+051.603,-00.2128,+00.2739,-00.5672,+14.240,-00.004,+04.672,+00.261067,+01.126165,-00.585646*6E
"
1712236690.4903367,+050.075,+077.159,+054.261,-00.2098,+00.2573,-00.5842,+09.211,+01.195,+03.364,+00.312951,+00.814704,-00.615351,"$VNYMR,+050.075,+077.159,+054.261,-00.2098,+00.2573,-00.5842,+09.211,+01.195,+03.364,+00.312951,+00.814704,-00.615351*6E
"
1712236690.513642,+051.116,+078.372,+055.749,-00.2165,+00.2550,-00.5899,+08.464,+01.140,+03.654,+00.338776,+00.487832,-00.591292,"$VNYMR,+051.116,+078.372,+055.749,-00.2165,+00.2550,-00.5899,+08.464,+01.140,+03.654,+00.338776,+00.487832,-00.591292*60
"
1712236690.5411654,+050.618,+079.276,+055.771,-00.2157,+00.2385,-00.5990,+08.951,+01.323,+03.688,+00.370757,+00.172803,-00.535841,"$VNYMR,+050.618,+079.276,+055.771,-00.2157,+00.2385,-00.5990,+08.951,+01.323,+03.688,+00.370757,+00.172803,-00.535841*65
"
1712236690.5640996,+048.304,+079.862,+054.046,-00.2214,+00.2303,-00.5925,+11.746,+01.214,+03.586,+00.393252,-00.118846,-00.477748,"$VNYMR,+048.304,+079.862,+054.046,-00.2214,+00.2303,-00.5925,+11.746,+01.214,+03.586,+00.393252,-00.118846,-00.477748*62
"
1712236690.58873,+044.169,+080.109,+050.544,-00.2224,+00.2338,-00.5953,+15.638,+01.137,+03.105,+00.405493,-00.397266,-00.420988,"$VNYMR,+044.169,+080.109,+050.544,-00.2224,+00.2338,-00.5953,+15.638,+01.137,+03.105,+00.405493,-00.397266,-00.420988*63
"
1712236690.6137753,+039.271,+080.189,+046.282,-00.2260,+00.2197,-00.5993,+14.133,-00.644,-02.316,+00.369155,-00.346208,-00.450557,"$VNYMR,+039.271,+080.189,+046.282,-00.2260,+00.2197,-00.5993,+14.133,-00.644,-02.316,+00.369155,-00.346208,-00.450557*6B
"
1712236690.6390998,+034.901,+080.537,+042.436,-00.2239,+00.2138,-00.5978,+08.033,-01.578,-02.978,+00.286881,-00.075269,-00.593509,"$VNYMR,+034.901,+080.537,+042.436,-00.2239,+00.2138,-00.5978,+08.033,-01.578,-02.978,+00.286881,-00.075269,-00.593509*68
"
1712236690.6637414,+031.111,+081.305,+039.023,-00.2275,+00.2020,-00.5978,+05.135,-01.251,-03.173,+00.207016,+00.263036,-00.714143,"$VNYMR,+031.111,+081.305,+039.023,-00.2275,+00.2020,-00.5978,+05.135,-01.251,-03.173,+00.207016,+00.263036,-00.714143*69
"
1712236690.6894639,+027.691,+082.546,+035.856,-00.2256,+00.1819,-00.6148,+04.938,-01.272,-03.746,+00.117286,+00.626736,-00.848538,"$VNYMR,+027.691,+082.546,+035.856,-00.2256,+00.1819,-00.6148,+04.938,-01.272,-03.746,+00.117286,+00.626736,-00.848538*6D
"
1712236690.7135396,+023.963,+084.261,+032.262,-00.2315,+00.1678,-00.6123,+05.909,-00.826,-02.712,+00.048289,+00.955264,-00.962234,"$VNYMR,+023.963,+084.261,+032.262,-00.2315,+00.1678,-00.6123,+05.909,-00.826,-02.712,+00.048289,+00.955264,-00.962234*61
"
1712236690.7386339,+018.243,+086.426,+026.569,-00.2270,+00.1713,-00.6294,+10.334,-00.411,-03.081,-00.027903,+01.287973,-01.062668,"$VNYMR,+018.243,+086.426,+026.569,-00.2270,+00.1713,-00.6294,+10.334,-00.411,-03.081,-00.027903,+01.287973,-01.062668*60
"
1712236690.7638564,-005.779,+088.824,+002.460,-00.2250,+00.1594,-00.6492,+15.830,+01.747,+00.155,-00.090411,+01.463424,-01.063775,"$VNYMR,-005.779,+088.824,+002.460,-00.2250,+00.1594,-00.6492,+15.830,+01.747,+00.155,-00.090411,+01.463424,-01.063775*6A
"
1712236690.7907999,-125.796,+088.417,-117.666,-00.2231,+00.1440,-00.6663,+14.004,+01.503,+04.012,-00.077918,+01.251058,-00.974115,"$VNYMR,-125.796,+088.417,-117.666,-00.2231,+00.1440,-00.6663,+14.004,+01.503,+04.012,-00.077918,+01.251058,-00.974115*61
"
1712236690.813693,-137.455,+086.500,-129.410,-00.2191,+00.1215,-00.6711,+10.422,+01.915,+03.651,-00.058581,+00.923344,-00.872750,"$VNYMR,-137.455,+086.500,-129.410,-00.2191,+00.1215,-00.6711,+10.422,+01.915,+03.651,-00.058581,+00.923344,-00.872750*6B
"
1712236690.8386095,-138.100,+084.933,-130.121,-00.2137,+00.1096,-00.6881,+10.693,+01.590,+04.060,-00.033375,+00.597768,-00.785085,"$VNYMR,-138.100,+084.933,-130.121,-00.2137,+00.1096,-00.6881,+10.693,+01.590,+04.060,-00.033375,+00.597768,-00.785085*68
"
1712236690.863977,-135.158,+083.827,-127.384,-00.2161,+00.1001,-00.6868,+11.816,-03.821,-01.819,-00.233831,+00.110656,-00.689515,"$VNYMR,-135.158,+083.827,-127.384,-00.2161,+00.1001,-00.6868,+11.816,-03.821,-01.819,-00.233831,+00.110656,-00.689515*61
"
1712236690.8888395,-129.085,+083.082,-121.555,-00.2137,+00.1107,-00.6841,+16.094,-05.110,+00.176,-00.023990,-00.161730,-00.701039,"$VNYMR,-129.085,+083.082,-121.555,-00.2137,+00.1107,-00.6841,+16.094,-05.110,+00.176,-00.023990,-00.161730,-00.701039*64
"
1712236690.9133923,-123.901,+082.338,-116.341,-00.2130,+00.0918,-00.6945,+11.182,-07.546,-04.785,+00.014402,-00.128402,-00.657683,"$VNYMR,-123.901,+082.338,-116.341,-00.2130,+00.0918,-00.6945,+11.182,-07.546,-04.785,+00.014402,-00.128402,-00.657683*68
"
1712236690.9385858,-120.320,+081.596,-113.110,-00.2131,+00.0871,-00.6891,+09.852,-06.591,-06.746,-00.428008,-00.058088,-00.576839,"$VNYMR,-120.320,+081.596,-113.110,-00.2131,+00.0871,-00.6891,+09.852,-06.591,-06.746,-00.428008,-00.058088,-00.576839*60
"
1712236690.965584,-118.777,+080.983,-112.679,-00.2155,+00.0753,-00.6744,+08.424,-04.218,-05.417,-00.965441,+00.064983,-00.384352,"$VNYMR,-118.777,+080.983,-112.679,-00.2155,+00.0753,-00.6744,+08.424,-04.218,-05.417,-00.965441,+00.064983,-00.384352*60
"
1712236690.988552,-118.972,+080.510,-114.510,-00.2121,+00.0776,-00.6929,+07.668,-02.252,-03.487,-01.217111,+00.207276,-00.236340,"$VNYMR,-118.972,+080.510,-114.510,-00.2121,+00.0776,-00.6929,+07.668,-02.252,-03.487,-01.217111,+00.207276,-00.236340*66
"
1712236691.0133357,-120.566,+080.155,-117.818,-00.2132,+00.0823,-00.6837,+10.126,-00.418,-02.591,-01.193561,+00.324501,-00.072955,"$VNYMR,-120.566,+080.155,-117.818,-00.2132,+00.0823,-00.6837,+10.126,-00.418,-02.591,-01.193561,+00.324501,-00.072955*65
"
1712236691.0417645,-122.975,+079.915,-121.850,-00.2117,+00.1012,-00.6852,+11.084,-00.786,-00.832,-01.153546,+00.161989,+00.052050,"$VNYMR,-122.975,+079.915,-121.850,-00.2117,+00.1012,-00.6852,+11.084,-00.786,-00.832,-01.153546,+00.161989,+00.052050*61
"
1712236691.0640557,-124.990,+079.820,-125.499,-00.2084,+00.1012,-00.6904,+11.564,-00.600,+01.198,-01.173750,+00.182006,+00.090583,"$VNYMR,-124.990,+079.820,-125.499,-00.2084,+00.1012,-00.6904,+11.564,-00.600,+01.198,-01.173750,+00.182006,+00.090583*64
"
1712236691.090822,-125.886,+079.833,-128.079,-00.2082,+00.1106,-00.6905,+10.658,-01.056,+01.707,-01.199692,+00.007557,+00.051842,"$VNYMR,-125.886,+079.833,-128.079,-00.2082,+00.1106,-00.6905,+10.658,-01.056,+01.707,-01.199692,+00.007557,+00.051842*67
"
1712236691.1136332,-125.215,+079.943,-129.130,-00.2093,+00.1095,-00.6745,+09.927,-00.491,+02.136,-01.186627,-00.189885,-00.021256,"$VNYMR,-125.215,+079.943,-129.130,-00.2093,+00.1095,-00.6745,+09.927,-00.491,+02.136,-01.186627,-00.189885,-00.021256*66
"
1712236691.1411386,-122.835,+080.146,-128.434,-00.2103,+00.1130,-00.6866,+10.587,-00.347,+02.024,-01.122123,-00.387644,-00.106937,"$VNYMR,-122.835,+080.146,-128.434,-00.2103,+00.1130,-00.6866,+10.587,-00.347,+02.024,-01.122123,-00.387644,-00.106937*60
"
1712236691.1661723,-118.962,+080.387,-126.167,-00.2179,+00.1226,-00.6671,+11.069,+00.469,+01.447,-01.060905,-00.500203,-00.160391,"$VNYMR,-118.962,+080.387,-126.167,-00.2179,+00.1226,-00.6671,+11.069,+00.469,+01.447,-01.060905,-00.500203,-00.160391*61
"
1712236691.1887457,-114.435,+080.640,-123.198,-00.2210,+00.1381,-00.6581,+10.655,+01.256,+00.100,-01.038769,-00.526719,-00.138345,"$VNYMR,-114.435,+080.640,-123.198,-00.2210,+00.1381,-00.6581,+10.655,+01.256,+00.100,-01.038769,-00.526719,-00.138345*66
"
1712236691.2159047,-110.214,+080.919,-120.527,-00.2222,+00.1334,-00.6581,+09.036,+01.764,-00.667,-01.049667,-00.465122,-00.046437,"$VNYMR,-110.214,+080.919,-120.527,-00.2222,+00.1334,-00.6581,+09.036,+01.764,-00.667,-01.049667,-00.465122,-00.046437*6C
"
1712236691.2383764,-107.136,+081.230,-119.015,-00.2220,+00.1416,-00.6502,+08.132,+01.717,-01.068,-01.078075,-00.350795,+00.073437,"$VNYMR,-107.136,+081.230,-119.015,-00.2220,+00.1416,-00.6502,+08.132,+01.717,-01.068,-01.078075,-00.350795,+00.073437*6C
"
1712236691.263064,-105.618,+081.590,-119.086,-00.2275,+00.1417,-00.6265,+08.007,+01.452,-01.210,-01.107208,-00.199257,+00.184904,"$VNYMR,-105.618,+081.590,-119.086,-00.2275,+00.1417,-00.6265,+08.007,+01.452,-01.210,-01.107208,-00.199257,+00.184904*64
"
1712236691.288574,-105.819,+081.959,-120.895,-00.2252,+00.1476,-00.6371,+08.929,+01.042,-00.990,-01.133945,-00.055624,+00.259483,"$VNYMR,-105.819,+081.959,-120.895,-00.2252,+00.1476,-00.6371,+08.929,+01.042,-00.990,-01.133945,-00.055624,+00.259483*63
"
1712236691.3131728,-107.431,+082.281,-124.133,-00.2283,+00.1583,-00.6254,+10.071,+00.254,-00.429,-01.152368,+00.045182,+00.270711,"$VNYMR,-107.431,+082.281,-124.133,-00.2283,+00.1583,-00.6254,+10.071,+00.254,-00.429,-01.152368,+00.045182,+00.270711*61
"
1712236691.3405356,-109.480,+082.499,-127.816,-00.2257,+00.1772,-00.6201,+10.696,-00.538,+00.609,-01.151155,+00.064766,+00.199017,"$VNYMR,-109.480,+082.499,-127.816,-00.2257,+00.1772,-00.6201,+10.696,-00.538,+00.609,-01.151155,+00.064766,+00.199017*65
"
1712236691.3666592,-110.644,+082.617,-130.601,-00.2268,+00.1819,-00.6229,+10.435,-00.565,+01.580,-01.127226,-00.001695,+00.080290,"$VNYMR,-110.644,+082.617,-130.601,-00.2268,+00.1819,-00.6229,+10.435,-00.565,+01.580,-01.127226,-00.001695,+00.080290*63
"
1712236691.390149,-110.028,+082.691,-131.573,-00.2246,+00.1807,-00.6174,+10.196,-00.381,+02.024,-01.091054,-00.125343,-00.046742,"$VNYMR,-110.028,+082.691,-131.573,-00.2246,+00.1807,-00.6174,+10.196,-00.381,+02.024,-01.091054,-00.125343,-00.046742*62
"
1712236691.418916,-107.422,+082.786,-130.520,-00.2289,+00.1855,-00.6004,+10.728,+00.183,+02.334,-01.055268,-00.281979,-00.131669,"$VNYMR,-107.422,+082.786,-130.520,-00.2289,+00.1855,-00.6004,+10.728,+00.183,+02.334,-01.055268,-00.281979,-00.131669*6D
"
1712236691.4389412,-102.905,+082.960,-127.519,-00.2268,+00.1784,-00.6002,+10.864,+00.929,+02.090,-01.022353,-00.438418,-00.155585,"$VNYMR,-102.905,+082.960,-127.519,-00.2268,+00.1784,-00.6002,+10.864,+00.929,+02.090,-01.022353,-00.438418,-00.155585*66
"
1712236691.465229,-097.012,+083.244,-123.120,-00.2333,+00.1879,-00.5846,+10.752,+01.856,+01.597,-01.009138,-00.575761,-00.091357,"$VNYMR,-097.012,+083.244,-123.120,-00.2333,+00.1879,-00.5846,+10.752,+01.856,+01.597,-01.009138,-00.575761,-00.091357*6B
"
1712236691.4908314,-090.478,+083.661,-118.078,-00.2376,+00.1951,-00.5729,+09.922,+02.033,+00.644,-01.010946,-00.618312,+00.038346,"$VNYMR,-090.478,+083.661,-118.078,-00.2376,+00.1951,-00.5729,+09.922,+02.033,+00.644,-01.010946,-00.618312,+00.038346*6E
"
1712236691.514148,-083.786,+084.192,-112.886,-00.2330,+00.2021,-00.5741,+09.265,+02.075,-00.087,-01.027804,-00.588182,+00.176629,"$VNYMR,-083.786,+084.192,-112.886,-00.2330,+00.2021,-00.5741,+09.265,+02.075,-00.087,-01.027804,-00.588182,+00.176629*60
"
1712236691.5387757,-077.538,+084.792,-108.156,-00.2363,+00.2069,-00.5583,+09.205,+01.406,-00.862,-01.047102,-00.496438,+00.282868,"$VNYMR,-077.538,+084.792,-108.156,-00.2363,+00.2069,-00.5583,+09.205,+01.406,-00.862,-01.047102,-00.496438,+00.282868*65
"
1712236691.5626845,-072.191,+085.384,-104.345,-00.2395,+00.2129,-00.5332,+08.924,+00.409,-01.028,-01.065777,-00.367875,+00.312360,"$VNYMR,-072.191,+085.384,-104.345,-00.2395,+00.2129,-00.5332,+08.924,+00.409,-01.028,-01.065777,-00.367875,+00.312360*6A
"
1712236691.5884225,-068.088,+085.879,-101.799,-00.2350,+00.2163,-00.5330,+08.900,-00.332,-01.060,-01.086476,-00.233927,+00.260440,"$VNYMR,-068.088,+085.879,-101.799,-00.2350,+00.2163,-00.5330,+08.900,-00.332,-01.060,-01.086476,-00.233927,+00.260440*6F
"
1712236691.615684,-065.535,+086.197,-100.821,-00.2383,+00.2152,-00.5238,+09.038,-00.896,-00.493,-01.098711,-00.122790,+00.143059,"$VNYMR,-065.535,+086.197,-100.821,-00.2383,+00.2152,-00.5238,+09.038,-00.896,-00.493,-01.098711,-00.122790,+00.143059*6E
"
1712236691.638954,-064.057,+086.301,-100.926,-00.2370,+00.2270,-00.5132,+09.690,-00.778,+00.119,-01.103426,-00.060055,+00.005015,"$VNYMR,-064.057,+086.301,-100.926,-00.2370,+00.2270,-00.5132,+09.690,-00.778,+00.119,-01.103426,-00.060055,+00.005015*6F
"
1712236691.663673,-062.498,+086.217,-100.942,-00.2370,+00.2282,-00.5239,+10.604,-00.353,+00.953,-01.091442,-00.063806,-00.117519,"$VNYMR,-062.498,+086.217,-100.942,-00.2370,+00.2282,-00.5239,+10.604,-00.353,+00.953,-01.091442,-00.063806,-00.117519*69
"
1712236691.6887803,-059.659,+086.021,-099.656,-00.2358,+00.2293,-00.5105,+10.945,+00.454,+01.601,-01.070450,-00.143826,-00.175595,"$VNYMR,-059.659,+086.021,-099.656,-00.2358,+00.2293,-00.5105,+10.945,+00.454,+01.601,-01.070450,-00.143826,-00.175595*6C
"
1712236691.7125688,-054.963,+085.830,-096.488,-00.2392,+00.2270,-00.4880,+10.651,+01.433,+01.890,-01.050032,-00.258580,-00.145692,"$VNYMR,-054.963,+085.830,-096.488,-00.2392,+00.2270,-00.4880,+10.651,+01.433,+01.890,-01.050032,-00.258580,-00.145692*6D
"
1712236691.7402942,-048.147,+085.732,-091.185,-00.2383,+00.2152,-00.4891,+10.015,+01.794,+01.872,-01.038054,-00.392698,-00.052142,"$VNYMR,-048.147,+085.732,-091.185,-00.2383,+00.2152,-00.4891,+10.015,+01.794,+01.872,-01.038054,-00.392698,-00.052142*65
"
1712236691.7626076,-039.250,+085.727,-083.797,-00.2415,+00.2223,-00.4707,+10.028,+01.949,+01.465,-01.035188,-00.505544,+00.065079,"$VNYMR,-039.250,+085.727,-083.797,-00.2415,+00.2223,-00.4707,+10.028,+01.949,+01.465,-01.035188,-00.505544,+00.065079*6F
"
1712236691.788877,-028.227,+085.766,-074.287,-00.2402,+00.2318,-00.4560,+10.341,+01.752,+01.029,-01.032858,-00.573440,+00.177820,"$VNYMR,-028.227,+085.766,-074.287,-00.2402,+00.2318,-00.4560,+10.341,+01.752,+01.029,-01.032858,-00.573440,+00.177820*6F
"
1712236691.8163786,-015.928,+085.750,-063.503,-00.2390,+00.2388,-00.4534,+10.416,+00.929,+00.090,-01.036030,-00.594389,+00.234324,"$VNYMR,-015.928,+085.750,-063.503,-00.2390,+00.2388,-00.4534,+10.416,+00.929,+00.090,-01.036030,-00.594389,+00.234324*6E
"
1712236691.84097,-004.709,+085.615,-053.803,-00.2346,+00.2340,-00.4438,+09.532,+00.125,-00.696,-01.041706,-00.513277,+00.210878,"$VNYMR,-004.709,+085.615,-053.803,-00.2346,+00.2340,-00.4438,+09.532,+00.125,-00.696,-01.041706,-00.513277,+00.210878*6B
"
1712236691.8628755,+003.538,+085.389,-047.086,-00.2391,+00.2329,-00.4146,+08.349,-00.525,-00.975,-01.057573,-00.395480,+00.131897,"$VNYMR,+003.538,+085.389,-047.086,-00.2391,+00.2329,-00.4146,+08.349,-00.525,-00.975,-01.057573,-00.395480,+00.131897*68
"
1712236691.8885112,+008.177,+085.149,-043.994,-00.2359,+00.2258,-00.4184,+08.106,-00.568,-01.176,-01.078002,-00.247947,+00.025091,"$VNYMR,+008.177,+085.149,-043.994,-00.2359,+00.2258,-00.4184,+08.106,-00.568,-01.176,-01.078002,-00.247947,+00.025091*67
"
1712236691.9124396,+009.564,+084.956,-044.173,-00.2347,+00.2293,-00.4117,+08.515,-00.393,-00.970,-01.096683,-00.094989,-00.069035,"$VNYMR,+009.564,+084.956,-044.173,-00.2347,+00.2293,-00.4117,+08.515,-00.393,-00.970,-01.096683,-00.094989,-00.069035*69
"
1712236691.9386213,+008.562,+084.822,-046.756,-00.2347,+00.2316,-00.3997,+09.621,+00.140,-00.452,-01.111795,+00.021833,-00.130137,"$VNYMR,+008.562,+084.822,-046.756,-00.2347,+00.2316,-00.3997,+09.621,+00.140,-00.452,-01.111795,+00.021833,-00.130137*68
"
1712236691.9636736,+006.539,+084.732,-050.367,-00.2359,+00.2269,-00.3997,+10.423,+01.001,+00.388,-01.114468,+00.062364,-00.123975,"$VNYMR,+006.539,+084.732,-050.367,-00.2359,+00.2269,-00.3997,+10.423,+01.001,+00.388,-01.114468,+00.062364,-00.123975*6C
"
1712236691.9884872,+005.059,+084.675,-053.436,-00.2370,+00.2270,-00.3944,+10.359,+01.355,+01.266,-01.110895,+00.027917,-00.062175,"$VNYMR,+005.059,+084.675,-053.436,-00.2370,+00.2270,-00.3944,+10.359,+01.355,+01.266,-01.110895,+00.027917,-00.062175*62
"
1712236692.0125332,+005.249,+084.638,-054.831,-00.2372,+00.2139,-00.3783,+10.189,+01.486,+01.715,-01.101390,-00.065696,+00.020025,"$VNYMR,+005.249,+084.638,-054.831,-00.2372,+00.2139,-00.3783,+10.189,+01.486,+01.715,-01.101390,-00.065696,+00.020025*66
"
1712236692.0390246,+007.655,+084.591,-054.002,-00.2339,+00.2139,-00.3834,+10.161,+01.288,+01.895,-01.086506,-00.199311,+00.091348,"$VNYMR,+007.655,+084.591,-054.002,-00.2339,+00.2139,-00.3834,+10.161,+01.288,+01.895,-01.086506,-00.199311,+00.091348*6D
"
1712236692.0640438,+012.079,+084.478,-051.137,-00.2371,+00.2199,-00.3703,+10.477,+00.952,+01.703,-01.066330,-00.330706,+00.127611,"$VNYMR,+012.079,+084.478,-051.137,-00.2371,+00.2199,-00.3703,+10.477,+00.952,+01.703,-01.066330,-00.330706,+00.127611*6C
"
1712236692.0891314,+017.602,+084.248,-047.153,-00.2337,+00.2245,-00.3529,+10.551,+00.464,+01.162,-01.048371,-00.425696,+00.118818,"$VNYMR,+017.602,+084.248,-047.153,-00.2337,+00.2245,-00.3529,+10.551,+00.464,+01.162,-01.048371,-00.425696,+00.118818*6C
"
1712236692.1156907,+022.895,+083.891,-043.381,-00.2316,+00.2197,-00.3527,+10.168,+00.072,+00.252,-01.038876,-00.446757,+00.069296,"$VNYMR,+022.895,+083.891,-043.381,-00.2316,+00.2197,-00.3527,+10.168,+00.072,+00.252,-01.038876,-00.446757,+00.069296*6E
"
1712236692.1384742,+026.814,+083.481,-040.976,-00.2284,+00.2102,-00.3391,+09.195,-00.058,-00.658,-01.044330,-00.380836,+00.005845,"$VNYMR,+026.814,+083.481,-040.976,-00.2284,+00.2102,-00.3391,+09.195,-00.058,-00.658,-01.044330,-00.380836,+00.005845*67
"
1712236692.1630344,+029.039,+083.124,-040.276,-00.2285,+00.2079,-00.3217,+08.356,+00.177,-01.169,-01.063090,-00.249107,-00.041034,"$VNYMR,+029.039,+083.124,-040.276,-00.2285,+00.2079,-00.3217,+08.356,+00.177,-01.169,-01.063090,-00.249107,-00.041034*64
"
1712236692.1909528,+029.742,+082.918,-041.122,-00.2219,+00.2030,-00.3253,+08.046,+00.509,-01.350,-01.088096,-00.080885,-00.047819,"$VNYMR,+029.742,+082.918,-041.122,-00.2219,+00.2030,-00.3253,+08.046,+00.509,-01.350,-01.088096,-00.080885,-00.047819*63
"
1712236692.2134268,+029.328,+082.910,-043.110,-00.2253,+00.2031,-00.3135,+08.350,+00.987,-01.112,-01.110540,+00.079712,-00.011646,"$VNYMR,+029.328,+082.910,-043.110,-00.2253,+00.2031,-00.3135,+08.350,+00.987,-01.112,-01.110540,+00.079712,-00.011646*6E
"
1712236692.2384584,+028.275,+083.104,-045.764,-00.2264,+00.2031,-00.3095,+09.150,+01.219,-00.555,-01.130594,+00.200909,+00.061250,"$VNYMR,+028.275,+083.104,-045.764,-00.2264,+00.2031,-00.3095,+09.150,+01.219,-00.555,-01.130594,+00.200909,+00.061250*6F
"
1712236692.265665,+027.021,+083.449,-048.640,-00.2241,+00.2066,-00.3148,+10.161,+01.203,+00.301,-01.140117,+00.255394,+00.136478,"$VNYMR,+027.021,+083.449,-048.640,-00.2241,+00.2066,-00.3148,+10.161,+01.203,+00.301,-01.140117,+00.255394,+00.136478*68
"
1712236692.2903821,+026.006,+083.859,-051.281,-00.2244,+00.1900,-00.3133,+10.579,+00.883,+01.130,-01.137281,+00.224217,+00.185867,"$VNYMR,+026.006,+083.859,-051.281,-00.2244,+00.1900,-00.3133,+10.579,+00.883,+01.130,-01.137281,+00.224217,+00.185867*66
"
1712236692.3133621,+025.788,+084.222,-053.109,-00.2265,+00.1936,-00.2987,+10.592,+00.381,+01.760,-01.116178,+00.123885,+00.184007,"$VNYMR,+025.788,+084.222,-053.109,-00.2265,+00.1936,-00.2987,+10.592,+00.381,+01.760,-01.116178,+00.123885,+00.184007*67
"
1712236692.3382463,+026.584,+084.450,-053.892,-00.2221,+00.1947,-00.3065,+10.199,+00.060,+01.834,-01.087148,-00.001269,+00.140123,"$VNYMR,+026.584,+084.450,-053.892,-00.2221,+00.1947,-00.3065,+10.199,+00.060,+01.834,-01.087148,-00.001269,+00.140123*67
"
1712236692.3629663,+028.347,+084.498,-053.670,-00.2256,+00.1865,-00.3013,+10.180,+00.010,+01.595,-01.057782,-00.118323,+00.068264,"$VNYMR,+028.347,+084.498,-053.670,-00.2256,+00.1865,-00.3013,+10.180,+00.010,+01.595,-01.057782,-00.118323,+00.068264*6F
"
1712236692.3887453,+030.619,+084.379,-052.902,-00.2200,+00.1876,-00.2917,+10.381,+00.102,+00.977,-01.032547,-00.198939,-00.002290,"$VNYMR,+030.619,+084.379,-052.902,-00.2200,+00.1876,-00.2917,+10.381,+00.102,+00.977,-01.032547,-00.198939,-00.002290*66
"
1712236692.4132733,+032.783,+084.157,-052.211,-00.2201,+00.1829,-00.2956,+10.218,+00.554,+00.274,-01.016070,-00.211606,-00.040232,"$VNYMR,+032.783,+084.157,-052.211,-00.2201,+00.1829,-00.2956,+10.218,+00.554,+00.274,-01.016070,-00.211606,-00.040232*69
"
1712236692.4406557,+034.514,+083.962,-051.945,-00.2159,+00.1698,-00.2832,+09.533,+01.165,-00.477,-01.018469,-00.154948,-00.014763,"$VNYMR,+034.514,+083.962,-051.945,-00.2159,+00.1698,-00.2832,+09.533,+01.165,-00.477,-01.018469,-00.154948,-00.014763*6D
"
1712236692.4627457,+035.769,+083.911,-052.158,-00.2183,+00.1615,-00.2672,+08.554,+01.457,-00.932,-01.024604,-00.045606,+00.063815,"$VNYMR,+035.769,+083.911,-052.158,-00.2183,+00.1615,-00.2672,+08.554,+01.457,-00.932,-01.024604,-00.045606,+00.063815*6D
"
1712236692.4878619,+036.457,+084.082,-052.952,-00.2149,+00.1627,-00.2738,+08.278,+01.556,-01.024,-01.035710,+00.084284,+00.167286,"$VNYMR,+036.457,+084.082,-052.952,-00.2149,+00.1627,-00.2738,+08.278,+01.556,-01.024,-01.035710,+00.084284,+00.167286*6C
"
1712236692.5133717,+036.552,+084.486,-054.350,-00.2138,+00.1662,-00.2684,+08.892,+01.522,-00.792,-01.045617,+00.208632,+00.272454,"$VNYMR,+036.552,+084.486,-054.350,-00.2138,+00.1662,-00.2684,+08.892,+01.522,-00.792,-01.045617,+00.208632,+00.272454*61
"
1712236692.5376406,+036.060,+085.076,-056.338,-00.2125,+00.1732,-00.2671,+09.862,+01.039,-00.235,-01.045732,+00.289586,+00.345669,"$VNYMR,+036.060,+085.076,-056.338,-00.2125,+00.1732,-00.2671,+09.862,+01.039,-00.235,-01.045732,+00.289586,+00.345669*62
"
1712236692.5625632,+034.889,+085.743,-058.996,-00.2127,+00.1650,-00.2737,+10.516,+00.384,+00.440,-01.034755,+00.309563,+00.356398,"$VNYMR,+034.889,+085.743,-058.996,-00.2127,+00.1650,-00.2737,+10.516,+00.384,+00.440,-01.034755,+00.309563,+00.356398*66
"
1712236692.590609,+032.933,+086.351,-062.405,-00.2106,+00.1590,-00.2775,+10.308,-00.216,+01.083,-01.006357,+00.271449,+00.293968,"$VNYMR,+032.933,+086.351,-062.405,-00.2106,+00.1590,-00.2775,+10.308,-00.216,+01.083,-01.006357,+00.271449,+00.293968*62
"
1712236692.614923,+030.392,+086.798,-066.351,-00.2118,+00.1555,-00.2615,+10.056,-00.341,+01.303,-00.970041,+00.197706,+00.193662,"$VNYMR,+030.392,+086.798,-066.351,-00.2118,+00.1555,-00.2615,+10.056,-00.341,+01.303,-00.970041,+00.197706,+00.193662*6B
"
1712236692.6378183,+028.092,+087.051,-070.001,-00.2106,+00.1567,-00.2748,+10.210,-00.197,+01.438,-00.928268,+00.106395,+00.092266,"$VNYMR,+028.092,+087.051,-070.001,-00.2106,+00.1567,-00.2748,+10.210,-00.197,+01.438,-00.928268,+00.106395,+00.092266*60
"
1712236692.6624908,+027.135,+087.136,-072.251,-00.2140,+00.1520,-00.2616,+10.473,+00.327,+01.150,-00.887968,+00.021454,+00.018657,"$VNYMR,+027.135,+087.136,-072.251,-00.2140,+00.1520,-00.2616,+10.473,+00.327,+01.150,-00.887968,+00.021454,+00.018657*6F
"
1712236692.6903803,+027.514,+087.140,-073.117,-00.2095,+00.1566,-00.2601,+10.600,+00.979,+00.763,-00.856680,-00.030193,+00.006948,"$VNYMR,+027.514,+087.140,-073.117,-00.2095,+00.1566,-00.2601,+10.600,+00.979,+00.763,-00.856680,-00.030193,+00.006948*67
"
1712236692.7140574,+028.975,+087.184,-072.865,-00.2084,+00.1578,-00.2627,+09.952,+01.635,+00.214,-00.835004,-00.041127,+00.075940,"$VNYMR,+028.975,+087.184,-072.865,-00.2084,+00.1578,-00.2627,+09.952,+01.635,+00.214,-00.835004,-00.041127,+00.075940*64
"
1712236692.7394361,+030.936,+087.363,-072.090,-00.2063,+00.1530,-00.2612,+09.246,+01.807,-00.121,-00.820223,-00.009128,+00.185702,"$VNYMR,+030.936,+087.363,-072.090,-00.2063,+00.1530,-00.2612,+09.246,+01.807,-00.121,-00.820223,-00.009128,+00.185702*64
"
1712236692.7645833,+032.629,+087.727,-071.567,-00.2075,+00.1460,-00.2491,+08.999,+01.860,-00.552,-00.811407,+00.054089,+00.306288,"$VNYMR,+032.629,+087.727,-071.567,-00.2075,+00.1460,-00.2491,+08.999,+01.860,-00.552,-00.811407,+00.054089,+00.306288*66
"
1712236692.790238,+032.975,+088.270,-072.373,-00.2032,+00.1388,-00.2542,+09.251,+01.222,-00.786,-00.798403,+00.145491,+00.394195,"$VNYMR,+032.975,+088.270,-072.373,-00.2032,+00.1388,-00.2542,+09.251,+01.222,-00.786,-00.798403,+00.145491,+00.394195*6E
"
1712236692.814349,+028.222,+088.916,-078.251,-00.2053,+00.1435,-00.2477,+09.888,+00.761,-00.362,-00.775815,+00.217017,+00.421601,"$VNYMR,+028.222,+088.916,-078.251,-00.2053,+00.1435,-00.2477,+09.888,+00.761,-00.362,-00.775815,+00.217017,+00.421601*6B
"
1712236692.837771,+002.259,+089.495,-105.294,-00.2029,+00.1541,-00.2530,+10.061,-00.043,+00.221,-00.739293,+00.244660,+00.377724,"$VNYMR,+002.259,+089.495,-105.294,-00.2029,+00.1541,-00.2530,+10.061,-00.043,+00.221,-00.739293,+00.244660,+00.377724*6F
"
1712236692.864849,-068.490,+089.513,-177.064,-00.2051,+00.1566,-00.2585,+09.876,-00.386,+00.664,-00.693587,+00.236507,+00.275277,"$VNYMR,-068.490,+089.513,-177.064,-00.2051,+00.1566,-00.2585,+09.876,-00.386,+00.664,-00.693587,+00.236507,+00.275277*68
"
1712236692.8875356,-090.012,+089.159,+160.465,-00.1997,+00.1458,-00.2594,+09.935,-00.264,+00.798,-00.642528,+00.196807,+00.161429,"$VNYMR,-090.012,+089.159,+160.465,-00.1997,+00.1458,-00.2594,+09.935,-00.264,+00.798,-00.642528,+00.196807,+00.161429*6D
"
1712236692.913014,-092.664,+088.892,+156.943,-00.2043,+00.1412,-00.2463,+10.292,+00.010,+01.027,-00.583704,+00.140463,+00.059122,"$VNYMR,-092.664,+088.892,+156.943,-00.2043,+00.1412,-00.2463,+10.292,+00.010,+01.027,-00.583704,+00.140463,+00.059122*67
"
1712236692.9396253,-091.480,+088.734,+157.341,-00.2009,+00.1423,-00.2634,+10.374,+00.839,+00.672,-00.528302,+00.091756,+00.015239,"$VNYMR,-091.480,+088.734,+157.341,-00.2009,+00.1423,-00.2634,+10.374,+00.839,+00.672,-00.528302,+00.091756,+00.015239*6D
"
1712236692.965119,-090.989,+088.621,+157.111,-00.2021,+00.1411,-00.2515,+10.315,+01.057,+00.310,-00.490189,+00.075082,+00.034986,"$VNYMR,-090.989,+088.621,+157.111,-00.2021,+00.1411,-00.2515,+10.315,+01.057,+00.310,-00.490189,+00.075082,+00.034986*6D
"
1712236692.9875433,-094.100,+088.507,+153.328,-00.1997,+00.1458,-00.2501,+09.794,+01.768,+00.611,-00.453795,+00.041776,+00.115236,"$VNYMR,-094.100,+088.507,+153.328,-00.1997,+00.1458,-00.2501,+09.794,+01.768,+00.611,-00.453795,+00.041776,+00.115236*63
"
1712236693.012567,-100.676,+088.318,+146.124,-00.1995,+00.1588,-00.2569,+09.292,+01.803,-00.110,-00.431983,+00.053081,+00.218314,"$VNYMR,-100.676,+088.318,+146.124,-00.1995,+00.1588,-00.2569,+09.292,+01.803,-00.110,-00.431983,+00.053081,+00.218314*64
"
1712236693.0372913,-108.491,+088.009,+137.721,-00.1987,+00.1446,-00.2553,+09.876,+01.527,-00.371,-00.399321,+00.074849,+00.300608,"$VNYMR,-108.491,+088.009,+137.721,-00.1987,+00.1446,-00.2553,+09.876,+01.527,-00.371,-00.399321,+00.074849,+00.300608*68
"
1712236693.064613,-114.773,+087.583,+130.899,-00.1976,+00.1410,-00.2432,+09.818,+01.000,+00.184,-00.368090,+00.096242,+00.341009,"$VNYMR,-114.773,+087.583,+130.899,-00.1976,+00.1410,-00.2432,+09.818,+01.000,+00.184,-00.368090,+00.096242,+00.341009*6C
"
1712236693.0906782,-118.550,+087.123,+126.636,-00.1943,+00.1398,-00.2564,+10.000,+00.191,+00.157,-00.324150,+00.112633,+00.307999,"$VNYMR,-118.550,+087.123,+126.636,-00.1943,+00.1398,-00.2564,+10.000,+00.191,+00.157,-00.324150,+00.112633,+00.307999*65
"
